,attitude.roll,attitude.pitch,attitude.yaw,gravity.x,gravity.y,gravity.z,rotationRate.x,rotationRate.y,rotationRate.z,userAcceleration.x,userAcceleration.y,userAcceleration.z
0,134927,-42927,693436,35741,68337,97838,570425,1102615,720966,113816,-591585,458060
1,134787,-26018,674826,46945,55685,97255,1095719,748881,281777,38327,-371247,195384
2,134560,-16029,668015,53456,48124,96803,115544,283694,-18234,-170364,-272391,-87289
3,123563,-13709,672799,54555,46357,88371,228682,-724282,-325937,-189467,-270304,175476
4,100736,-12949,670058,53908,45779,70980,367940,-588455,-314456,18363,-53096,36219
5,83097,-9838,666507,54758,43404,57394,441429,-439221,-135740,-12837,-261186,92972
6,61948,-3439,659657,57146,38499,40844,596783,-479385,-83329,-101696,-433436,-115072
7,48497,259,653523,58226,35653,30281,429889,151679,-305382,-111718,-334415,-22402
8,50235,-936,648260,57642,36574,31707,528473,771020,-494563,-108189,-327171,5195
9,49866,-2070,635261,56888,37447,31517,887359,640807,-476933,-82731,-424113,-116791
10,40981,-2558,614002,55678,37822,24784,1119398,503709,-492228,-198678,-526371,-73713
11,19334,-961,589304,54240,36592,8157,1264478,-337750,-379042,-271840,-512081,-115650
12,-26773,4134,559870,51011,32662,-27417,1487053,-1509687,-272368,-203334,-497820,11784
13,-94966,14266,530739,44708,24795,-80366,1436909,-2465992,-40757,-186166,-505074,206027
14,-170443,30690,510034,36314,11906,-139858,1398901,-3110137,174527,-122124,-448087,246049
15,-255338,51297,487291,22119,-4499,-207076,1505338,-3319634,258861,-98026,-292797,203603
16,-333609,67255,473462,1789,-17376,-267600,854334,-3124658,17984,-202391,-162366,450773
17,-390372,66810,475095,-22099,-17016,-306984,221983,-2456259,-344091,-450232,-248465,530578
18,-437667,62285,477089,-45666,-13350,-337306,-32501,-1879129,-593366,-618345,-355143,333329
19,-469361,50284,481461,-66469,-3686,-353712,-378773,-1031264,-801970,-565010,-441192,380101
20,-476772,35327,488936,-77232,8237,-352944,-434470,173490,-735537,-457949,-417135,448653
21,-456820,19319,501427,-75674,20848,-334456,-827065,1396603,-705664,-388095,-372541,223500
22,-409754,-5320,526954,-67503,39944,-295652,-1507356,2036643,-867195,-429135,-478856,142994
23,-346415,-34294,563012,-58239,61900,-244916,-1688566,2569823,-845644,-433822,-516972,128803
24,-263511,-61510,601179,-46032,82020,-182153,-1636586,3527979,-1008878,-383604,-463634,-58961
25,-162191,-95543,646905,-40217,106462,-105893,-2124699,3859786,-1510505,-168243,-275188,-241071
26,-45371,-138472,714386,-47581,136123,-19809,-2820159,3520693,-1888806,253779,113121,-387594
27,53324,-171953,796818,-60947,158314,48917,-2435759,974761,-1176764,300226,-12358,-467612
28,66304,-176301,849196,-63245,161135,57665,-817737,-1752049,8804,207828,-548442,-525036
29,36535,-162990,857668,-55676,152456,37144,492488,-1000137,513715,-168837,-976302,-546658
30,30727,-137522,846920,-37443,135481,30588,856572,1421306,978900,-441693,-1110877,37916
31,74072,-116916,842643,-18824,121396,58103,179511,3056881,140999,-572021,-788504,467689
32,135240,-126715,863222,-22854,128133,100554,-721394,2353713,-1185784,-546690,29847,659660
33,192028,-142998,888607,-34281,139172,139211,-466874,2033269,-925086,-563583,955592,737840
34,209461,-141358,899379,-33340,138069,150960,151159,87884,-81858,-687938,418273,343568
35,185948,-137783,889113,-30381,135657,135157,803647,-654083,-247265,-251718,-441651,59475
36,163438,-136618,871302,-29568,134870,119933,797744,295544,-358550,4885,-448920,67986
37,167209,-136179,860981,-29213,134573,122481,505100,1056690,-239792,115415,-409361,153693
38,173400,-130720,855623,-25175,130867,126657,418253,675927,-49767,390339,-255906,-148974
39,177749,-124090,849831,-20328,126335,129618,514062,929938,14670,578760,-35494,-28996
40,185201,-116244,841013,-14659,120932,134771,484012,893810,17711,640809,-25847,120422
41,189905,-107319,841046,-8273,114731,138104,211570,446886,130680,-139946,-597940,199198
42,193360,-99883,840374,-3001,109521,140599,242034,613777,-72283,-239638,-545519,42711
43,206113,-99176,848866,-2698,109024,149579,-207365,585199,-527243,-281231,-481972,-51932
44,216440,-106195,864282,-7944,113946,156648,-280722,145477,-788907,-120225,-375247,94487
45,223379,-114436,882634,-14061,119680,161221,-443830,-70178,-796179,69578,-420485,27872
46,228984,-120012,904559,-18276,123532,164893,-472241,-240332,-578241,68132,-565801,45745
47,224247,-112549,917676,-12731,118372,161886,-271667,-265361,-357775,51372,-727450,-107879
48,217005,-112366,929003,-12383,118245,156867,-79754,-567356,-393434,23649,-804349,-362856
49,205062,-113414,938346,-12860,118972,148560,-51021,-617388,-427352,-54929,-763344,-243311
50,190694,-114313,943769,-13307,119595,138589,134623,-602113,-412188,-140711,-706121,34574
51,172177,-115041,947062,-13782,120100,125761,113456,-760928,-371540,-210486,-664924,152382
52,155599,-113451,953550,-12793,118998,114260,-22793,-798263,-241053,-253681,-622348,123738
53,129041,-110407,959072,-11256,116883,95747,191343,-1483302,-143608,-300095,-676752,73373
54,85115,-103142,957634,-8230,111810,64784,375702,-2030222,70956,-322513,-675860,45742
55,23634,-90562,950795,-4714,102936,20658,745593,-2784668,340495,-325618,-530496,51905
56,-63108,-73039,931294,-4901,90390,-42618,1316755,-3630441,363725,-287772,-168798,59866
57,-165137,-54411,906327,-14061,76820,-117434,1326507,-3977179,220027,-263445,93855,298868
58,-256036,-40318,897218,-30726,66397,-183226,476115,-3829032,142301,-192641,90180,504597
59,-332181,-33464,899102,-52494,61279,-235925,496766,-3310261,-137024,-254294,7025,408096
60,-402323,-26208,887726,-75707,55829,-283462,821373,-2509461,-346223,-239397,-83685,104986
61,-456700,-23684,883479,-97749,53925,-318098,264112,-2028479,-265274,-195260,-241098,518665
62,-478841,-17893,891273,-104812,49538,-333766,174487,-396895,182799,-231471,-409869,526155
63,-464371,-13375,906513,-95822,46103,-326773,-284175,988744,119068,-424100,-463530,216870
64,-430548,-18253,932965,-83341,49812,-304062,-938039,1102434,-39469,-546781,-410127,189414
65,-398586,-31883,968551,-77306,60095,-279065,-1408748,587281,-273901,-583547,-507658,206499
66,-360818,-53817,1012281,-74938,76384,-247496,-1901002,954337,-529910,-512474,-601279,85499
67,-299561,-84045,1067848,-71538,98295,-198584,-2405053,1771026,-797260,-432286,-602317,-61113
68,-222168,-119616,1128613,-71410,123260,-138676,-2387670,2116805,-1235553,-128826,-479241,-215566
69,-141372,-154040,1189026,-75907,146546,-78622,-2120559,2091931,-1107605,261306,-26391,-494461
70,-90788,-164855,1230173,-74026,153680,-44334,-492215,526982,-108257,439494,22672,-613496
71,-113577,-154564,1225884,-70742,146894,-60914,887528,-1035324,180052,288475,46335,-890084
72,-136687,-136889,1225758,-62832,135053,-79602,237674,-594978,646035,-7322,43664,-938060
73,-136992,-118406,1239920,-50062,122425,-83974,103290,59841,578027,-367047,-478879,-53333
74,-137363,-110111,1238031,-44456,116677,-86071,669792,510253,-394948,-281101,-423677,310456
75,-148425,-115325,1215869,-50436,120296,-92175,1014845,692682,-1026227,-134174,91045,530718
76,-149971,-119758,1194825,-53816,123358,-92157,613202,1111672,-496527,-160763,260392,748993
77,-127198,-110530,1203529,-42585,116969,-79244,-122978,1334160,445559,-488201,-393039,966121
78,-83904,-100881,1221487,-27507,110223,-52112,-78854,1977940,53005,-333251,-361758,774240
79,-57191,-95399,1206252,-19114,106361,-34825,1336946,2310130,-330637,-103759,-112519,757534
80,-48751,-85374,1177351,-10872,99244,-30606,1315790,1190710,173782,571027,-326959,100100
81,-59306,-56882,1158147,6522,78633,-42552,1176074,181081,1295733,553634,-306349,112046
82,-66054,-35069,1170955,19569,62481,-50893,-797175,-775016,213884,268583,-804128,-422321
83,-59654,-41591,1211331,16486,67344,-45223,-1360528,-489178,-448441,-109391,-498749,547656
84,-41964,-53246,1252148,11807,75964,-30705,-1334272,-87847,-667758,-53946,-338896,532160
85,-22560,-68874,1294275,4318,87376,-14620,-1522608,-182233,-876187,57959,-158262,296610
86,251,-86880,1346021,-4903,100316,3830,-1838449,-435706,-884478,9593,-279129,178412
87,24034,-103470,1401619,-13714,112040,22337,-1772251,-396634,-856291,-74309,-429828,194099
88,52435,-120433,1456721,-23057,123821,43568,-1798427,-169154,-977475,-202646,-463506,204242
89,90093,-137749,1518815,-32918,135634,70452,-2024575,61789,-992170,-285604,-464957,268772
90,140139,-152493,1585328,-41739,145518,104614,-1967512,479980,-926077,-262180,-475880,333562
91,189604,-163955,1648082,-49927,153090,137392,-1754619,378013,-919118,-157863,-485176,194048
92,234444,-174534,1707243,-58944,159990,166346,-1590317,335003,-961713,-161845,-555064,45407
93,277111,-182269,1760533,-66984,164982,193332,-1347149,431696,-844769,-287013,-596982,50067
94,313490,-187829,1806751,-73961,168541,215957,-1081052,320932,-814995,-322686,-595201,121969
95,339752,-194003,1842253,-81151,172466,231759,-625641,250252,-850180,-199330,-566884,126539
96,354438,-201439,1863539,-88402,177154,239910,-219526,209256,-806698,-44008,-517997,85565
97,276613,-148996,1813506,-41935,143189,195498,-118712,10182,-641870,-48605,-568200,-91518
98,275257,-152068,1824114,-44126,145236,194373,-54479,-257000,-481914,-64939,-601360,-121841
99,263948,-151896,1831144,-43307,145121,186894,75315,-657559,-324533,-46196,-614947,-24092
100,239285,-149232,1831987,-40111,143346,170653,318864,-1142689,-161977,67872,-578215,-3029
101,195336,-142920,1819753,-34260,139120,141433,945423,-1559127,72600,131250,-453246,-13848
102,119646,-129116,1776477,-25140,129773,90004,2226286,-2041119,415450,175200,-207235,37657
103,25190,-106914,1711230,-16023,114449,23511,2600539,-1981081,528015,220817,-34121,337304
104,-53400,-82699,1666318,-9801,97333,-34265,1658145,-2094814,483122,53187,-22207,555465
105,-120010,-63919,1643313,-9822,83776,-84061,1206877,-2304364,264457,-2379,-35170,735008
106,-190516,-44341,1623107,-14213,69387,-137363,1302087,-2605572,381944,140363,-112258,692499
107,-255023,-20915,1614739,-18774,51830,-187914,743680,-2528571,790279,513668,-228766,480904
108,-287927,8084,1628981,-12947,29602,-218716,255430,-1361768,1397464,639097,-359124,467852
109,-302052,39676,1653616,-595,4784,-237492,27304,-1204831,1509902,213705,-392045,412974
110,-322006,67928,1685165,6693,-17924,-259549,-371536,-1943542,1441833,-120596,-352644,359515
111,-352396,89509,1726177,5245,-35584,-287298,-877741,-2579676,1388906,-316595,-282159,389630
112,-387014,102182,1778205,-3605,-46079,-315472,-1448640,-2992537,1234828,-368291,-281506,512850
113,-422399,106537,1834403,-17798,-49705,-341410,-1622512,-2954880,1026330,-409824,-360200,640503
114,-455878,104257,1889188,-34963,-47805,-363441,-1709211,-2800141,767017,-455205,-426019,634366
115,-487177,96325,1940636,-54195,-41217,-381479,-1649511,-2578856,522528,-464217,-499868,616775
116,-514927,84772,1986266,-73648,-31684,-395204,-1548622,-2210720,281342,-441224,-501741,562415
117,-536103,69429,2027500,-91582,-19143,-402694,-1519877,-1724201,68344,-430751,-477737,574209
118,-546914,50925,2066143,-105542,-4200,-402074,-1553766,-1105620,-82237,-429913,-433506,581141
119,-545139,29193,2104037,-114475,13087,-392297,-1633870,-566757,-237312,-403601,-382802,478531
120,-535130,3588,2141483,-121382,33083,-375892,-1711335,-203469,-443416,-325619,-354063,362837
121,-517562,-24990,2176404,-126759,54910,-353726,-1669879,237301,-681905,-234762,-361712,297381
122,-493510,-56710,2209146,-131903,78507,-326472,-1726428,514198,-880276,-140033,-360423,97459
123,-464741,-90358,2244180,-137673,102791,-295812,-1784765,530621,-940525,38557,-398897,-104449
124,-438590,-122883,2281227,-145741,125507,-267351,-1711204,101890,-881777,263667,-499096,-262489
125,-425842,-147541,2318144,-155658,142217,-249886,-1241025,-722822,-443738,632745,-684232,-162705
126,-434244,-150218,2349281,-160497,144005,-253353,-375791,-1498546,454196,755641,-748566,-114514
127,-439383,-133197,2385312,-152201,132550,-263437,-250316,-932669,1355927,687439,-787253,21591
128,-422292,-107880,2432143,-130411,115123,-264279,-420041,-416621,1655319,89736,-805988,232379
129,-401807,-87084,2480508,-110122,100462,-260479,-680981,-291396,1202546,54159,-561729,327685
130,-373083,-89470,2519489,-100597,102161,-242320,-1241341,942972,-368963,311464,-206754,489245
131,-333717,-104232,2555046,-95557,112573,-213082,-915147,691526,157065,-447986,97334,1033996
132,-324561,-84544,2587403,-80244,98651,-214178,29945,-826885,1298997,-551190,-57431,563015
133,-328610,-58966,2615842,-66186,80160,-225276,-341934,-892022,1127704,-635025,-183533,214541
134,-329771,-58985,2655555,-66609,80174,-226013,-1200384,-1020795,-288180,-669286,-646604,562461
135,-325445,-85351,2673650,-81043,99227,-214458,-818838,499815,-1531942,-719351,-622459,908005
136,-302660,-116810,2678785,-93228,121323,-189782,-592432,1659422,-1608759,-608015,-557947,1032149
137,-257695,-139074,2687963,-94239,136529,-155052,-511253,2584313,-938534,285407,-164446,805784
138,-200987,-150523,2708043,-86987,144207,-116773,-582645,2080039,-511097,496660,-247442,528019
139,-175129,-162995,2724914,-89601,152459,-97452,-525072,167469,-993217,683509,-519853,8896
140,-175112,-184122,2756398,-104682,166171,-91888,-1515804,-1284721,-878636,332682,-561733,-57687
141,-158096,-207211,2824198,-117895,180764,-75728,-2382299,-1396354,-715766,27491,-594362,402531
142,-126653,-230930,2898929,-129600,195320,-51524,-2176151,-913257,-759810,-281772,-490205,709184
143,-94249,-250065,2968329,-138828,206736,-28627,-1923132,-764385,-646070,-301398,-443927,594595
144,-56664,-265634,3032706,-145595,215807,-4260,-1639791,-172998,-665145,-263641,-401790,405114
145,-16143,-279263,3085875,-151619,223586,20713,-1208434,312585,-726848,-188007,-407615,177475
146,18343,-291946,3125878,-158572,230687,41564,-829897,388428,-840737,-139472,-435529,93726
147,43300,-305817,-3125567,-168039,238299,56809,-671630,126249,-947186,-45044,-516033,-10538
148,59869,-318818,-3094818,-177796,245288,67022,-622697,-289745,-855511,59027,-705578,-41396
149,68394,-328223,-3067889,-185221,250254,72398,-412758,-412593,-686178,179291,-832964,5733
150,70139,-333444,-3048798,-189552,252979,73785,-202276,-382174,-483921,240963,-854153,55737
151,70102,-333390,-3033917,-189507,252951,73761,-104930,-291986,-212028,308211,-779188,141592
152,65323,-327291,-3022340,-184610,249765,70710,87990,-533452,65230,224441,-752322,76330
153,38304,-316170,-3025180,-177048,243875,55332,604004,-1140010,254414,149023,-619510,-17942
154,-18097,-297363,-3049345,-166569,233679,22551,1424759,-1670521,609068,96979,-466520,85350
155,-111926,-263451,-3106727,-152130,214547,-35527,2649283,-2271919,1024316,85591,-49364,254725
156,-225504,-222700,3121675,-144268,190319,-110104,2016620,-3777812,938505,-219205,132609,178577
157,-302082,-200991,3127785,-149126,176873,-160253,-317802,-3459220,546845,-294960,-23408,678936
158,-339607,-198668,-3107441,-158819,175412,-181840,-1147428,-3379578,530265,-140873,19266,973304
159,-390212,-170939,-3087146,-157314,157654,-220580,1725136,-2548574,1745674,524232,-327845,836050
160,-439464,-105870,-3082385,-136083,113719,-274940,1041442,-2421568,2543985,1121623,-289036,-497073
161,-466166,-80306,-3020860,-132647,95619,-300850,-1293948,-3394860,1547223,691032,-420869,233321
162,-495545,-74752,-2966700,-142517,91625,-319918,-921835,-2747678,819398,-70444,-391424,598015
163,-523738,-72731,-2927242,-154341,90166,-336531,-802225,-2280412,547238,-725323,-524792,425374
164,-540375,-76967,-2889664,-164382,93221,-343714,-932127,-1400703,179871,-796840,-742903,451814
165,-539363,-87903,-2860179,-169664,101046,-338147,-889028,-258427,-198374,-837946,-963283,470126
166,-520441,-101898,-2835496,-168495,110937,-321549,-839831,775442,-378816,-750369,-944884,408498
167,-488721,-116770,-2814193,-162849,121295,-297674,-747468,1238046,-527247,-635119,-989360,402020
168,-454185,-131283,-2794423,-156946,131250,-272422,-771196,1434077,-511640,-606338,-992327,414350
169,-402962,-147523,-2764865,-147111,142205,-237200,-1206064,2069165,-447126,-590585,-977754,394921
170,-327893,-168759,-2725241,-135130,156233,-186520,-1474349,2854253,-741630,-541332,-810997,254123
171,-246852,-197285,-2693245,-131357,174541,-130249,-1145874,3273673,-1483356,-408342,-672001,147421
172,-180647,-236604,-2683327,-144453,198736,-80786,-574039,3119621,-2347628,-294979,-625319,126523
173,-141518,-278764,-2683386,-169186,223304,-47905,-409867,1588670,-2186423,202378,-143616,-29481
174,-130200,-308249,-2668700,-190617,239616,-34375,-845537,-453401,-1292748,417032,-161471,-85811
175,-106572,-327606,-2610847,-202612,249931,-17558,-1799692,-1042960,-617131,697765,-519882,-341353
176,-70032,-337032,-2541635,-205378,254837,2909,-1325511,-510493,-187213,383881,-923425,-168353
177,-39623,-331355,-2503844,-197023,251890,17146,-238712,635212,334862,80298,-774803,23402
178,-18154,-314920,-2494053,-181040,243206,25388,370780,1127681,527563,100632,-362860,100808
179,-7052,-298222,-2507769,-166126,234150,28649,1006073,1674127,253563,17358,-194975,470366
180,14228,-288023,-2524779,-155723,228504,38782,481725,2246942,-14685,-178227,53530,821485
181,56276,-279110,-2506378,-145074,223498,61107,-464657,1133599,304871,-451860,267260,891903
182,60557,-266656,-2489213,-134627,216396,62315,258824,-1041810,240073,-137081,112117,373009
183,-9401,-248342,-2529938,-126102,205721,19763,2044665,-953700,366734,577003,-418757,-630017
184,-36278,-231453,-2561702,-116021,195636,1339,991576,571673,239919,276137,-845638,-210714
185,-14873,-223420,-2553766,-107148,190759,12779,-349911,1178180,-20192,-296716,-836061,960997
186,13816,-218705,-2534012,-100367,187873,29400,-225731,992558,-61816,-170563,-651947,735666
187,45573,-218497,-2514281,-97331,187745,48664,-521792,1216657,-434844,293306,-480768,-47087
188,85844,-224945,-2481426,-99650,191688,73708,-816099,840207,-610538,265594,-535371,-170793
189,108488,-233838,-2456165,-105602,197073,87943,-344584,144848,-818929,350496,-451705,192214
190,93804,-240661,-2447337,-111720,201162,79587,115070,-1283191,-542560,135850,-537901,-101325
191,55571,-239878,-2444525,-113439,200695,56826,178505,-1803492,-219916,64235,-610189,-199641
192,13467,-234183,-2450408,-112527,197281,31197,763568,-1291741,-32750,-105226,-701608,55906
193,-34359,-221127,-2477575,-107761,189357,748,1380853,-931527,193290,-262778,-661717,-174691
194,-98028,-204860,-2518549,-104868,179297,-40543,1842261,-1441737,45479,-275452,-608139,-162926
195,-177148,-188000,-2563816,-107929,168650,-92078,1788883,-2199872,6554,-347601,-750904,334927
196,-263589,-169012,-2598282,-116176,156399,-149091,1581879,-2991311,170628,-375701,-824758,428821
197,-349919,-147002,-2616204,-128121,141857,-207238,1083699,-3452860,407021,-252886,-791539,413330
198,-429107,-129331,-2620148,-145866,129919,-259339,753812,-3483850,184703,-161472,-645064,641685
199,-501558,-116574,-2627104,-168267,121160,-304702,911383,-2654469,-100474,-201387,-418105,638204
200,-557508,-107388,-2642442,-188489,114779,-338533,882286,-1472372,-517731,-140242,-30010,344719
201,-581379,-108016,-2650565,-200134,115217,-350446,151804,6730,-541820,-37501,-3593,307530
202,-568099,-115735,-2644016,-197883,120580,-339917,-370902,1052198,-463488,43729,-341292,350741
203,-533343,-133044,-2624294,-191427,132446,-313749,-1143764,1454166,-681979,-46726,-550973,154911
204,-480323,-166276,-2587859,-188250,154612,-270709,-2072676,1749261,-945219,-174339,-525210,-116125
205,-393928,-206475,-2526756,-181648,180304,-207807,-2717618,2715034,-811024,-139163,-573166,-233852
206,-270293,-244124,-2444996,-170974,203223,-127617,-2834693,3505813,-795764,-184596,-633636,-405428
207,-142023,-273579,-2368006,-165222,220361,-49518,-1999438,3585456,-923560,-61457,-784425,-438025
208,-41216,-291473,-2316019,-164394,230423,9040,-1038154,3013763,-781515,83620,-798670,-258271
209,25966,-300522,-2297843,-164992,235412,46822,122859,2954880,-649417,229573,-435906,39381
210,67779,-301191,-2311729,-162565,235778,69576,842217,2901917,-283267,150135,24315,189143
211,83357,-289601,-2332227,-152074,229384,77141,827188,1209620,421642,-46926,45434,153944
212,76375,-270587,-2343774,-136839,218652,71688,549056,281983,607828,-384960,-543887,-158459
213,90388,-252598,-2334363,-121480,208226,78395,-185822,870067,433162,-462163,-716840,-154988
214,111604,-243393,-2321075,-113116,202788,90321,-57174,757599,-57177,-444389,-740151,440509
215,127090,-242969,-2303413,-112240,202537,99491,-326701,17466,-413829,-181761,-196320,394442
216,101250,-244774,-2308516,-114661,203609,84267,1074790,-739683,-362476,683209,31734,132109
217,61829,-218613,-2368968,-96188,187816,58583,2412520,1939441,1416682,1579897,-392933,-46749
218,59787,-189435,-2398537,-73728,169565,54661,525682,679808,508878,262317,-395099,-98662
219,88384,-186010,-2365502,-69220,167380,72540,-1310929,493378,-293128,-586032,-702255,604650
220,121634,-190560,-2317870,-71178,170281,93942,-1109831,-231301,-660399,-596602,-781649,359129
221,127128,-207412,-2297627,-84070,180889,98091,136347,224348,-1401101,293486,-283559,-18205
222,117857,-222343,-2311810,-96116,190101,93027,697576,171840,-745499,742713,-73411,-251849
223,74740,-206810,-2324888,-86101,180514,65511,802659,-2480615,1005177,674608,-605801,61769
224,-27620,-170710,-2352419,-68653,157507,-3180,1778990,-4484915,1353191,299509,-582197,322964
225,-173962,-127107,-2388072,-64340,128400,-105901,1970711,-6365092,1444534,-478487,-567191,172787
226,-294278,-85785,-2403398,-70899,99537,-194673,1273274,-4003920,1120443,-808764,-477186,398765
227,-346510,-61324,-2410813,-74032,81884,-235869,1000145,-1474011,322673,-1133406,-543364,925008
228,-403353,-50696,-2427847,-89774,74086,-275155,900449,-2360135,-701313,-1579898,-926174,115554
229,-442661,-67483,-2453162,-115465,86367,-292412,696746,125886,-2037994,-993019,-1023999,785766
230,-453871,-85749,-2504883,-130470,99512,-291521,1348460,2633681,-2103954,-617083,-712207,324394
231,-406567,-103774,-2539598,-121840,112253,-256796,342600,4290928,-1684746,-449871,-630311,135144
232,-322372,-127857,-2540120,-106684,128914,-197953,-946162,4997713,-1227841,-202484,-554612,80726
233,-191076,-166047,-2490153,-95448,154461,-106424,-2506224,4789519,-1623031,619792,-305532,472764
234,-71726,-206844,-2439306,-102105,180533,-24290,-1332953,4074517,-1790176,834394,200316,24296
235,-13138,-229811,-2435587,-111929,194643,14780,570882,2134284,-1218916,479245,271870,-679660
236,-27563,-240400,-2460732,-121932,201007,7944,782013,30570,-920985,217488,-292661,-775577
237,-40177,-246680,-2458109,-128443,204737,1676,-315682,-442514,-477255,83893,-537892,-485373
238,-16460,-250816,-2424810,-128851,207178,16056,-808909,635392,-278052,184276,-491702,121767
239,17420,-248176,-2415518,-123234,205623,35336,597552,1970280,-189822,365686,-141621,529703
240,26893,-244254,-2436468,-119243,203301,40388,702158,1422702,-273847,-54870,109572,723809
241,49814,-234882,-2422713,-109900,197702,52906,-492127,480808,541548,-679919,-244601,562961
242,72805,-215426,-2385669,-92948,185854,65019,-681766,-62263,650946,-442247,-641384,249731
243,87777,-203233,-2366425,-82537,178279,73349,-10434,653390,122744,-227577,-930515,-410210
244,89726,-194119,-2388515,-75376,172540,73943,1541951,1720186,-4513,181674,-749026,-187340
245,97284,-187894,-2425093,-70183,168583,78327,1171358,2108071,-246879,246732,-302731,417270
246,121198,-183995,-2439322,-66148,166089,93380,487267,1928931,-143538,522865,-92185,493678
247,118807,-176932,-2446890,-60841,161542,91533,665175,-467528,132104,382868,-626105,116495
248,77718,-164315,-2457035,-53419,153326,64103,518393,-1453867,232756,145983,-882339,-166009
249,46966,-151883,-2461866,-46486,145113,42847,535771,-679446,226544,-167955,-846492,-28330
250,32356,-144233,-2470225,-42190,140001,32396,591814,176548,-232429,-176768,-615213,277532
251,24664,-145345,-2482619,-43774,140748,27418,719513,506518,-542812,43825,-440911,272897
252,17791,-145102,-2497549,-44313,140585,22838,746789,401080,-306409,144767,-511152,236125
253,-4485,-136485,-2515570,-40589,134781,6969,1069751,-442206,109261,243476,-662254,-133580
254,-46984,-121488,-2535628,-35707,124548,-23639,1056664,-1543190,259063,45493,-546844,-184393
255,-113768,-105815,-2557484,-36604,113681,-71284,1292013,-2444860,166791,-141491,-437450,156219
256,-190147,-87636,-2587566,-41855,100856,-126420,1714643,-2433468,148364,-326958,-424167,382102
257,-275646,-67238,-2621960,-53392,86189,-188421,1863690,-2880842,8973,-263894,-319841,385845
258,-369412,-45096,-2658530,-73177,69946,-255967,1945596,-3235610,-54094,-135055,-218773,353309
259,-455118,-27587,-2680035,-99109,56866,-315619,927882,-3263819,-109237,149987,-199852,242475
260,-521232,-30352,-2673248,-131239,58946,-353579,-387510,-3060991,-407105,98225,-383189,719567
261,-569991,-39097,-2662521,-159724,65487,-377080,-209198,-2110199,-436989,-32913,-562231,746883
262,-598359,-44866,-2654529,-177068,69775,-389671,-195532,-793203,-261294,-316670,-551945,537917
263,-587322,-51663,-2638495,-174673,74798,-380629,-610047,971312,-272860,-408710,-314766,229376
264,-545123,-76127,-2611871,-166198,92616,-346668,-1719367,1703747,-790021,-445705,-226536,-3057
265,-481180,-116003,-2570964,-159205,120765,-293904,-2253183,2354167,-1010364,-227203,-621536,25920
266,-392824,-151202,-2522081,-145728,144660,-230034,-1944151,3298857,-693222,-327670,-777344,-23439
267,-288404,-171777,-2476922,-125145,158201,-162701,-1346229,4085302,-480681,-331911,-793494,-50626
268,-179094,-186836,-2440697,-107522,167907,-93553,-987901,4611980,-632678,-320390,-781014,-100364
269,-66878,-202788,-2406487,-98294,178000,-22126,-1072339,4495316,-954653,45702,-351959,-212928
270,30077,-224819,-2369288,-103604,191612,39975,-974479,3126457,-1310070,173052,-214676,-235480
271,76122,-238196,-2345790,-110730,199690,68884,-281590,886115,-563150,218110,-126090,-338959
272,90338,-231581,-2341385,-104661,195713,76895,451874,1051991,208745,50147,-828930,68987
273,104357,-214979,-2354871,-90868,185580,84369,815918,1867691,500798,-158073,-818034,179492
274,130303,-204119,-2370053,-81404,178833,99946,662037,2283372,-219722,-311504,-730478,242498
275,147474,-210679,-2378701,-86117,182919,110830,462988,1072073,-825242,-423353,242151,416565
276,151635,-214158,-2380247,-88776,185072,113482,205131,263309,-281214,-424097,264748,369984
277,138201,-210204,-2384250,-85945,182624,105067,532110,-204944,-149076,-241213,86318,370814
278,135083,-201841,-2390705,-79494,177406,102856,348506,841427,208292,509294,-576554,217539
279,149228,-184085,-2397481,-65457,166148,111333,771655,1425160,649539,576312,-653873,-109221
280,149333,-165382,-2420408,-51217,154025,110998,952369,1026070,396008,64681,-572507,163407
281,156230,-157743,-2429647,-45354,148999,115392,327998,1097723,-197035,-350682,-414235,569215
282,170773,-158183,-2424707,-45550,149290,125006,11532,667458,-481773,-180702,-370581,200927
283,173614,-164392,-2419422,-50213,153377,126902,164807,61946,-771551,248781,-418797,-140109
284,174642,-174585,-2415404,-57938,160023,127598,21526,339925,-898959,346655,-448347,199084
285,181494,-182667,-2403967,-64115,165237,132016,-148153,89235,-664814,270771,-511666,295298
286,178247,-183719,-2395664,-64919,165912,129931,105576,-259497,-255602,138472,-781126,57789
287,162918,-178722,-2397703,-61161,162698,120045,457135,-430828,-72397,56908,-616884,-221434
288,138894,-173616,-2411058,-57684,159395,104403,834754,-304982,-169266,21190,-533381,-182690
289,107533,-168643,-2436362,-55023,156158,83818,1249567,-282203,-98031,-100122,-629234,159932
290,64267,-154323,-2472947,-46897,146734,54479,1677413,-632302,501473,-217440,-765471,139756
291,1923,-125087,-2508529,-31598,127019,9779,1536434,-2209738,1096441,-296048,-750807,-48727
292,-87493,-92188,-2530127,-22219,104089,-56160,1274521,-3860625,984565,-60921,-617938,-126726
293,-187754,-66709,-2554724,-27665,85806,-130024,1631393,-3754557,258393,-248056,-653472,563670
294,-292293,-55689,-2576823,-51738,77759,-202816,846283,-4351190,-372303,-486175,-626076,761354
295,-386347,-52398,-2592574,-83955,75340,-263999,898694,-3283367,-521788,-405662,-557892,658933
296,-441978,-48494,-2609717,-104651,72460,-299517,850453,-1050022,-611513,-342258,-417378,653192
297,-458533,-48833,-2622823,-112020,72711,-309281,474424,462018,-655601,-396596,-359112,571462
298,-443779,-54508,-2621971,-108732,76891,-298233,-264939,1290774,-540051,-368085,-362392,425528
299,-407469,-72822,-2600349,-104056,90234,-269335,-1275265,1316470,-761852,-305546,-417467,210166
300,-361268,-99573,-2564459,-102378,109304,-231476,-1560062,1540216,-790835,-131076,-513014,179220
301,-297383,-121739,-2526441,-94726,124721,-184910,-1468112,2619740,-703982,98318,-545902,90709
302,-202497,-151264,-2481565,-87872,144701,-117503,-1847080,3880457,-1297903,216433,-104426,40986
303,-77951,-180753,-2432605,-83542,164008,-33149,-1632234,5113580,-1101429,308690,114228,-233767
304,39248,-199380,-2382076,-83024,175860,42750,-1405690,3185195,-972394,195883,17826,-814121
305,81196,-211839,-2338119,-89621,183637,69896,-1082077,-655552,-613766,-94821,-529182,-844989
306,75834,-211048,-2311597,-89333,183148,66526,-36230,-526076,-67175,115965,-1044698,-219108
307,79353,-201368,-2331185,-81586,177109,67955,1291239,2256664,53899,8471,-1055688,290571
308,102835,-194879,-2358717,-75288,173021,82260,970467,2498731,-262709,-298318,-541880,469671
309,134634,-193832,-2370609,-73295,172358,102308,379572,2280347,-282580,-400362,-67844,442926
310,172711,-192613,-2354093,-71776,171586,126414,-681866,993441,-414395,-212536,284551,-23212
311,195279,-198407,-2319883,-76356,175248,140651,-611385,-259354,-733832,-9271,130774,-184941
312,176869,-201228,-2329432,-78452,177022,129057,1297182,-103625,-307298,63229,-185103,133385
313,137975,-193975,-2380156,-73318,172449,104426,1717858,763948,17098,138570,-289752,519557
314,145246,-185510,-2385255,-66629,167060,108817,-58249,781069,205496,-185502,-407592,938231
315,147637,-169451,-2384377,-54327,156685,109979,593427,180665,602855,-264789,-815172,404858
316,133897,-146398,-2409484,-37372,141452,100269,1276427,1040732,712278,5517,-979794,-547804
317,134134,-128865,-2439980,-24457,129602,99867,1247702,1562482,263823,310823,-151737,252358
318,143038,-124221,-2459711,-20833,126425,105820,763054,1392875,-323662,426936,-33980,461004
319,148927,-124720,-2469763,-21069,126766,109867,502529,713713,-484845,468660,-58723,421008
320,157777,-131962,-2467423,-26212,131712,116036,-27412,678580,-829264,51120,-516882,265150
321,170439,-143253,-2458251,-34418,139344,124706,-12159,610905,-967940,5554,-506753,301204
322,184704,-155522,-2449325,-43556,147529,134223,-118179,757227,-971004,33307,-495163,195343
323,204832,-167362,-2433411,-52695,155322,147315,-318052,696058,-952026,39975,-647350,167831
324,222879,-177987,-2416811,-61192,162225,158739,-198397,559028,-886920,45512,-664598,117543
325,237328,-186348,-2405727,-68077,167596,167672,-31092,678165,-722467,-70696,-665453,-4931
326,248539,-190597,-2399545,-71811,170305,174591,163816,580749,-506268,-151345,-626536,61957
327,244776,-190560,-2405493,-71617,170281,172205,643238,216896,-240739,-123019,-567918,-1240
328,218776,-186131,-2428360,-67313,167457,155836,1147580,-368346,-44186,-111957,-589936,-312690
329,168131,-180974,-2463389,-62842,164149,123424,1457793,-1007092,-151228,-82538,-673512,-289724
330,117552,-179593,-2499629,-62919,163261,90844,1348586,-665739,-438711,-230914,-732545,246000
331,76459,-180015,-2523905,-65371,163532,64484,833824,-971999,-393844,-373329,-800671,376089
332,36590,-174363,-2536153,-64201,159880,38390,663927,-1303409,46569,-422823,-956550,412926
333,-24012,-160318,-2553713,-60486,150698,-2452,1151728,-2649486,314484,-266504,-808956,82231
334,-121479,-136785,-2576481,-59654,134983,-69818,1115753,-4154844,643037,-103793,-566648,-34989
335,-222446,-111179,-2581795,-65875,117420,-141223,722477,-4647216,771245,50134,-187727,397943
336,-314192,-91196,-2580151,-80833,103386,-205463,641748,-3943609,443972,56485,-93629,719126
337,-383538,-74553,-2584066,-95699,91483,-254176,838584,-2405068,203026,-98617,-97168,474061
338,-427474,-64161,-2587118,-107250,83952,-284692,439541,-1509825,-86124,-326049,-233894,33340
339,-453728,-63552,-2580566,-117994,83509,-300517,-129062,-978693,-281988,-336042,-425086,297151
340,-457453,-71485,-2566175,-123991,89266,-299467,-564566,27916,-417711,-402478,-683605,431600
341,-438453,-86656,-2548639,-124566,100158,-282228,-711121,1032192,-753306,-355150,-687660,291129
342,-400525,-105120,-2534017,-120321,113195,-252734,-736475,2176782,-852158,-389942,-654813,149834
343,-338111,-127574,-2512771,-111732,128720,-207450,-1120326,3001223,-1031085,-363849,-682089,34558
344,-250872,-158974,-2481930,-105791,149812,-144713,-1548815,3840716,-1472057,-232246,-619654,-6480
345,-144866,-201416,-2442559,-110942,177140,-69362,-1736838,4132485,-2078358,-25421,-518396,-139311
346,-35445,-244737,-2388480,-126315,203587,4081,-2016027,3235630,-1863378,371926,-262907,-410796
347,49872,-269720,-2320529,-137865,218156,56531,-1673900,823999,-867656,450386,-544016,-315162
348,74531,-270290,-2278314,-136704,218481,70613,-524990,-413072,71308,409155,-805298,-235630
349,78345,-255000,-2265703,-124075,209633,71550,122684,452534,690018,214275,-869264,-246380
350,113733,-228980,-2254522,-101529,194140,90847,-211,2329995,951673,-228132,-674190,159876
351,173941,-217287,-2244425,-91037,187001,127265,-91964,3048802,-235616,-341300,-171798,471618
352,233086,-218764,-2230127,-93142,187908,163564,-199205,2300892,-387093,-475517,178812,449159
353,226243,-218394,-2229090,-92632,187681,159382,625774,-1773068,-482933,-549360,2618,-96037
354,152381,-227639,-2269635,-99420,193325,114211,1881255,-673906,-987249,-542572,-3027,-50865
355,140038,-242006,-2310713,-111127,201964,107154,1079938,2056396,-1091418,210452,-467430,337614
356,149190,-251194,-2333187,-118352,207401,112811,1039200,1260093,-654847,973582,-58011,324664
357,134536,-242871,-2378442,-111954,202479,103911,1814991,1891182,424394,1542837,-526050,-40627
358,145365,-225449,-2400369,-97804,191996,109898,225656,1397479,324195,378205,-897677,283769
359,170919,-218201,-2377158,-91767,187563,125411,-627192,169645,-108546,-166528,-614619,654991
360,175705,-213177,-2358114,-87798,184466,128344,-76091,-180597,-111726,-107098,-553783,421467
361,162873,-211391,-2357316,-86461,183361,120390,275705,-544930,-414313,89610,-482487,-124548
362,155975,-216616,-2344574,-90647,186587,116203,-442668,-448542,-718556,2472,-499096,-249391
363,164696,-224658,-2319734,-96911,191514,121654,-433407,-65013,-733938,-116951,-642572,194454
364,172488,-231532,-2305594,-102333,195683,126429,-49144,273231,-671895,-72664,-700452,90222
365,175342,-236302,-2302902,-106136,198554,128161,308212,378043,-553097,70833,-697922,-214534
366,170078,-238281,-2309775,-107736,199740,125014,541833,289253,-396459,104567,-713283,-190560
367,153707,-236139,-2326205,-106176,198457,115177,878139,82680,-178065,29460,-771418,42712
368,122177,-227313,-2351264,-99900,193129,95881,1082743,-542739,202317,-88479,-890799,103099
369,65620,-211740,-2377178,-90548,183577,60290,1127894,-2185213,384198,-123237,-960762,-246167
370,-24836,-191208,-2406888,-83658,170693,1751,1399000,-3339875,391845,2044,-798876,-110051
371,-124037,-174325,-2434473,-87011,159855,-63119,1067736,-3725402,120833,-87514,-684003,193724
372,-209369,-168753,-2429166,-101762,156229,-116782,-191322,-4642830,-63043,-271889,-478671,656141
373,-296146,-165039,-2412608,-122882,153801,-169520,-32028,-4428769,79869,-113532,-423204,616501
374,-368660,-158054,-2398122,-141586,149204,-213724,-651,-3480278,219878,-74443,-403958,453690
375,-425371,-153062,-2383032,-158869,145897,-247293,-49978,-2818698,-14187,-76462,-364320,206801
376,-470091,-154484,-2369191,-177109,146841,-270741,-293082,-2198424,-140594,-90799,-330611,218394
377,-490046,-157463,-2342166,-186954,148813,-279836,-617750,-1221799,198786,-61911,-394170,296810
378,-479237,-158988,-2311749,-183466,149821,-273501,-586603,187698,137376,-54567,-506275,334114
379,-448245,-163315,-2282272,-173869,152670,-255203,-705901,1057873,13652,-284880,-490218,298666
380,-403878,-170347,-2247832,-161774,157269,-228295,-999142,1279607,-37819,-435937,-451681,306716
381,-349793,-181447,-2204233,-150540,164454,-194084,-1347755,1509056,-105710,-530775,-464342,220488
382,-276771,-192288,-2154513,-135906,171379,-149026,-1462872,2497972,-90689,-504912,-411073,-54948
383,-175945,-206728,-2095111,-121297,180462,-86327,-1986518,3331248,-492793,-333974,-365911,-489366
384,-62409,-233449,-2025853,-121118,196840,-13658,-2078158,2989805,-1339028,15594,-543803,-649345
385,6782,-265746,-1979300,-138331,215872,31566,-863139,1202543,-1660468,651551,-402404,-710058
386,8974,-277465,-1973500,-147599,222569,34425,311704,-340628,-386577,847785,-301023,-555919
387,-14203,-265641,-1976904,-140427,215811,19658,466837,-346710,465887,564123,-712707,-743131
388,-15445,-238753,-1980698,-119205,200022,14779,808247,737298,1078973,-86432,-714985,-104876
389,-25712,-212843,-1999708,-100275,184260,4607,1141062,399647,514505,-369461,-592074,344978
390,-44609,-208053,-2022444,-99079,181287,-7647,846132,455832,-757743,-412801,-412817,535607
391,-32263,-221190,-2037249,-107542,189396,2011,394005,2048244,-1120796,-598812,114032,654428
392,-8083,-230344,-2034578,-111774,194965,17863,-85733,503211,-609420,-711112,199588,313441
393,-17117,-234564,-2033499,-116110,197511,13150,466643,476,-573939,178508,7010,634852
394,-18629,-234757,-2048103,-116437,197626,12287,564708,1483855,-255757,718707,-142261,692644
395,-31149,-208006,-2072892,-97253,181259,530,2359602,558323,1600650,1028121,-1005059,342006
396,-59086,-157706,-2140179,-63603,148975,-25471,1934339,2026675,1070232,620051,-879025,-135166
397,8061,-158044,-2099551,-54903,149198,18034,-2364262,1866850,-520261,382377,-547446,1641
398,75326,-168166,-2022943,-56473,155847,62838,-1715980,102691,-533768,598898,-518022,418735
399,82595,-182426,-1986442,-66822,165083,68593,-1034492,-817561,-1160216,609247,-527259,412981
400,116152,-199479,-1920472,-78278,175923,90885,-2290508,-393408,-914228,207495,-408445,41385
401,162052,-212412,-1845951,-87271,183993,119892,-1836175,-224417,-944386,-125569,-464656,236147
402,198761,-225597,-1788733,-97741,192085,142392,-1388794,-41149,-1076092,-179216,-466279,207726
403,236706,-239735,-1733200,-109928,200610,164797,-1396576,27454,-1175579,-192373,-472698,165837
404,278943,-253922,-1678132,-123329,209002,188784,-1239170,376381,-1190950,-35692,-412807,49687
405,322240,-266564,-1627810,-136627,216343,212471,-1059899,406558,-1167303,30598,-475812,-102114
406,363124,-279189,-1578979,-150684,223544,233766,-1001067,369354,-1238416,82529,-642895,-204722
407,406411,-290907,-1527741,-165169,230110,255505,-1063210,341750,-1207836,58591,-720978,-195929
408,450049,-298836,-1474435,-177548,234488,277206,-1060016,264389,-1045344,14314,-805252,-63729
409,489573,-303298,-1425794,-187350,236928,296831,-880387,246186,-911607,29229,-868940,-5549
410,519900,-306062,-1383651,-194848,238431,311707,-751970,-67750,-836600,64985,-916969,-144128
411,539662,-307691,-1344556,-199828,239314,321291,-678342,-487933,-784273,83501,-930684,-220546
412,544826,-307805,-1313167,-200915,239377,323868,-424941,-883752,-587579,95802,-918997,-280894
413,529894,-306933,-1296465,-197382,238905,316556,-27356,-1261895,-406993,211928,-640524,-88019
414,490831,-304619,-1299567,-188615,237648,297142,527660,-1646309,-127022,253730,-557633,-60320
415,421976,-300596,-1328900,-175038,235453,261954,1213929,-2025850,152766,365670,-421251,48294
416,332027,-292716,-1377303,-158788,231113,214722,1609066,-2201723,368328,344234,-372662,45218
417,235086,-278996,-1430819,-141760,223435,161995,1625865,-2366370,502184,323360,-352412,65412
418,150808,-264976,-1466870,-129524,215428,114063,1027219,-2406949,247022,260328,-270598,322741
419,87065,-253897,-1480221,-122702,208988,76548,489406,-2299178,136305,197109,-308743,449322
420,34750,-244671,-1472303,-118894,203548,45050,-138576,-2650785,164416,282473,-445958,479706
421,517,-231530,-1451636,-111766,195682,23145,-242374,-1854105,556844,466507,-605999,356485
422,-16579,-208456,-1432204,-95784,181539,9482,-110249,-1163049,1051468,438548,-575392,102661
423,-34197,-181826,-1398320,-77827,164698,-5588,-833594,-2439449,1195465,178190,-495044,-28570
424,-61749,-157869,-1342010,-64137,149083,-27154,-1458981,-3461940,1161429,49662,-491682,141172
425,-87263,-136693,-1276583,-53147,134920,-47602,-1601366,-3344219,1149601,-75677,-493129,338410
426,-102961,-116604,-1208651,-41927,121180,-61889,-1561143,-2885447,1204840,-192947,-531848,482488
427,-116426,-96154,-1147246,-30561,106895,-75055,-1488338,-2345638,1213202,-290098,-566117,552692
428,-124926,-78532,-1086768,-20513,94346,-84476,-1595710,-2191186,1043475,-362019,-571696,541026
429,-132747,-66094,-1024769,-14020,85359,-92457,-1762406,-2238695,814841,-470838,-538889,428219
430,-139918,-59856,-961219,-11573,80811,-98749,-1884534,-2131774,556409,-544497,-514474,392288
431,-139949,-58622,-899017,-10781,79908,-99033,-1896864,-1550207,319501,-573535,-511588,347650
432,-127129,-62576,-837395,-10483,82797,-89288,-1987640,-908501,29624,-580774,-509822,229020
433,-103155,-71507,-775197,-11337,89283,-70848,-2059137,-458728,-231029,-506052,-455762,32052
434,-70481,-83898,-713328,-13513,98190,-45928,-2032622,-9422,-460019,-441346,-460321,-73786
435,-27216,-99346,-653403,-17238,109144,-13592,-1983788,590285,-757412,-365996,-444144,-152296
436,25075,-118694,-592354,-24418,122624,24720,-1998954,768162,-1004506,-22726,-443876,-400111
437,70582,-136183,-536443,-33052,134575,57205,-1542288,364708,-938842,279014,-547883,-405542
438,90306,-146242,-497295,-39166,141346,71145,-847762,-445660,-552665,478304,-476699,-412050
439,81841,-141673,-473500,-36313,138281,65176,-337581,-1287859,227507,221682,-386459,-426467
440,62930,-123678,-457535,-24534,126053,51010,-141109,-951946,767901,-97073,-631005,-318124
441,52142,-101384,-447717,-9500,110577,41655,204081,-425522,690589,-222504,-573186,-61438
442,44123,-88374,-446667,-1106,101382,34846,141416,94293,-43315,190395,99919,99850
443,47752,-91574,-434795,-3000,103654,37697,-170684,34175,-455615,79346,114019,520446
444,51097,-85194,-431670,1752,99115,39483,249594,606650,139450,-217795,-229968,716672
445,65269,-73400,-429391,11117,90651,48605,263720,1278228,279694,-454318,-340813,272340
446,93759,-66168,-422326,18098,85412,68651,-161856,1490620,-250186,-559994,-411714,7267
447,128803,-75749,-398976,13180,92345,94387,-913248,1105474,-1050765,-608923,-379555,272547
448,167731,-91847,-355518,2742,103847,122519,-1491665,555833,-1092557,-340078,-284322,431441
449,208629,-104331,-303624,-6422,112643,151235,-1568150,573480,-910448,81591,-391307,202287
450,243277,-108995,-260494,-10924,115900,175242,-976353,398409,-533280,272008,-521625,102626
451,264840,-107747,-235542,-11180,115030,190300,-500475,670536,-267522,247056,-580340,11824
452,296822,-102145,-207352,-9505,111110,212968,-1011615,1004207,-150811,-35304,-556126,-68431
453,338696,-95046,-163294,-8635,106112,242866,-1414560,685594,-310246,-146007,-504650,-37172
454,370417,-91200,-116614,-9915,103389,265452,-1456124,-25936,-558520,-254576,-422595,18628
455,395733,-89036,-65888,-12092,101852,283362,-1574006,-244562,-661612,-257555,-407174,-35278
456,421569,-87328,-13771,-15133,100636,301531,-1528631,-172067,-714800,-253004,-411726,-2208
457,447179,-85612,34838,-18605,99413,319489,-1394752,-65968,-723615,-251104,-398037,17126
458,471683,-84166,78564,-22496,98381,336573,-1158223,100455,-722176,-279348,-446931,80212
459,495498,-83578,113694,-27231,97962,352922,-839032,393306,-707503,-269105,-470590,66077
460,519355,-83838,142646,-32925,98148,368992,-677207,545114,-716181,-250791,-493405,29543
461,540124,-83247,167797,-37657,97725,383068,-655584,578186,-747051,-72567,-535858,-120231
462,563153,-83219,194900,-43654,97705,398403,-639166,493728,-685939,-24806,-533351,-149312
463,582883,-82210,220042,-48440,96983,411698,-569419,380422,-650055,48156,-520377,-186488
464,596125,-80262,242197,-50993,95588,420935,-466617,92032,-547487,199466,-582550,-298538
465,598359,-78008,258909,-50214,93970,423039,-251000,-287183,-473924,200976,-600067,-289107
466,588917,-75537,267958,-45899,92192,417519,-11816,-550745,-305294,211828,-626213,-242022
467,569534,-71382,271630,-37782,89192,405767,80777,-955293,-183420,7346,-687909,-297652
468,534402,-65486,270314,-24688,84917,383537,295308,-1667458,36908,-21282,-663188,-268633
469,477434,-53935,257990,-3801,76470,346652,604979,-2311773,522732,57472,-371965,70743
470,402913,-36344,229512,21928,63433,296396,1408145,-2500199,859734,119130,-214688,259807
471,311220,-17425,177022,46483,49184,230687,2314854,-2487564,909848,156922,-186903,84626
472,222304,2393,122261,65226,34008,164023,2076329,-2310309,745585,-12028,-22358,47164
473,145696,21125,91587,77366,19433,104511,1006451,-2761466,478044,-113066,133116,189257
474,75889,34761,94919,82063,8686,49069,-328725,-3532650,284903,-127270,212955,359613
475,16015,49967,120049,84904,-3432,571,-492719,-2963109,788297,101045,-218668,673523
476,-25092,82213,126595,97413,-29584,-35628,609542,-1433966,1578112,133550,-365567,310352
477,-55830,126072,138004,115583,-66102,-65862,-68104,-1828254,1932806,-9133,-287637,81844
478,-98212,162039,165417,124565,-96821,-105595,-520420,-2729339,1491762,-132082,-241780,161816
479,-138223,189014,192318,127133,-120292,-142768,-476344,-2021940,1173902,-335808,-168735,228757
480,-162384,209972,221450,129638,-138768,-166117,-727628,-1382223,987593,-431008,-117863,253402
481,-178627,225352,255800,131296,-152457,-182098,-1046273,-1237673,813198,-578571,-157306,317495
482,-192045,234845,293175,130975,-160959,-194832,-1164328,-1139430,590057,-563176,-284499,389525
483,-204121,239636,328312,128947,-165265,-205699,-1095251,-970368,343564,-621511,-397900,420518
484,-211310,239260,359687,126364,-164927,-211632,-1049163,-525044,28190,-755647,-459929,407851
485,-206860,232163,388090,124981,-158552,-206753,-1091211,174427,-363970,-861441,-482326,296771
486,-188138,216430,416320,124520,-144502,-188604,-1269620,895771,-779542,-833423,-565772,235499
487,-154586,193566,444665,124628,-124286,-157076,-1306774,1530111,-1138469,-786275,-655981,183633
488,-111768,166228,470552,123319,-100442,-117436,-1188087,2011302,-1428813,-702660,-656967,158443
489,-61426,134944,493091,119059,-73617,-71573,-1027071,2415644,-1718762,-605534,-656326,100633
490,-8100,100636,511763,110320,-44793,-23869,-766774,2401878,-1964754,-446313,-569534,71818
491,31111,65046,526074,95590,-15585,11224,-555275,1475551,-1997341,-111728,-318713,-89190
492,47039,39538,540499,82296,4894,25987,-479427,196787,-1156618,147294,-136800,-150935
493,41880,32010,560831,77206,10863,22542,-639821,-799559,-407638,270974,-196908,-183333
494,39874,33931,581455,78154,9342,20809,-427856,-22045,-24731,-167794,-456724,-199026
495,53235,42583,589547,84750,2471,30646,249513,1091249,166581,-338544,-528128,-98511
496,68267,53791,585736,92826,-6502,41812,513358,1155344,159796,-477738,-451560,49504
497,84328,62602,585651,99318,-13606,54171,132003,1155072,25741,-478006,-375181,41111
498,111238,68232,596505,104343,-18171,75651,-320458,1512835,-71881,-456312,-321912,-12825
499,149196,72351,614927,108198,-21520,106380,-444097,1693633,-156297,-151191,-244114,-52342
500,178468,75805,623874,110524,-24338,130226,139072,1346516,-169939,53527,82008,130263
501,190504,81914,616593,113966,-29339,140101,689650,1070080,17995,-1916,364351,355129
502,197928,92801,605767,120044,-38301,146315,693913,861261,286416,-196469,419595,278770
503,197558,102914,593681,125700,-46687,146122,753351,563698,56477,-223032,47747,113772
504,194838,109317,582296,129278,-52026,143920,716101,475848,-52629,-179382,-135193,159369
505,185987,113674,570266,131758,-55671,136545,731164,100422,-219754,-129769,-150529,-75534
506,182235,113612,564308,131745,-55621,133400,354898,458316,-416188,30293,-222908,245938
507,191260,112801,567716,131233,-54940,140957,1181,838651,-383896,54808,-253190,416834
508,209173,113631,573801,131347,-55635,155968,-5313,1130257,-308471,3394,-362098,293562
509,229771,114638,583999,131173,-56480,173241,-315068,998389,-362808,-69645,-398759,8070
510,248916,114475,603991,130093,-56343,189257,-725263,557029,-455907,-116019,-417314,25517
511,262810,112755,630069,128247,-54901,200789,-853207,205404,-589878,-169959,-455224,78193
512,274461,109280,658133,125465,-51996,210322,-936523,100566,-673647,-342775,-499253,35885
513,284727,104098,687541,121749,-47673,218549,-920535,-4542,-775950,-312859,-478352,-78315
514,294340,98446,715154,117733,-42974,226137,-801893,73754,-745310,-264882,-470751,-76518
515,303448,94590,737721,114677,-39781,233365,-542679,203322,-604798,-168931,-434150,-104926
516,310963,94505,751307,113825,-39710,239526,-130153,386183,-338300,-270146,-502565,-112231
517,313427,98347,751367,115684,-42893,241837,423782,466262,-65361,-411714,-548012,28251
518,308161,106886,739225,120963,-49996,238125,866554,293072,237056,-499009,-513565,-12990
519,287379,118991,715185,129616,-60135,221638,1338918,-300520,418441,-515154,-439369,-205808
520,248374,131711,686794,139372,-70873,189459,1378958,-1229157,313089,-445138,-371854,-480682
521,194017,139970,662124,145733,-77893,143504,1201374,-1898355,-14170,-290609,-441662,-151662
522,147480,144531,641596,147840,-81785,103787,1156603,-1134678,-209878,-223959,-492093,222924
523,109976,149528,618069,148855,-86059,71610,1305083,-957842,-72335,-307814,-585794,363897
524,62461,160847,601369,150880,-95792,30401,773596,-2069554,278959,-300044,-573923,350418
525,-3897,179155,596047,151383,-111671,-27855,690572,-3356389,612245,-277569,-518495,279860
526,-100133,208090,578990,145571,-137100,-113309,1697773,-4338486,1048896,128696,-77417,-86162
527,-197599,246892,562915,134038,-171806,-201397,1194492,-4024544,1297078,374009,376845,54202
528,-272085,273164,577241,116966,-195676,-267774,-318214,-3373449,957734,187482,322635,556308
529,-323510,285978,600028,99951,-207420,-312021,-248851,-2361071,540314,-294755,-54567,604263
530,-358678,295121,610692,86992,-215839,-341912,167025,-1168777,117607,-464489,-135152,294265
531,-372035,299362,616815,82013,-219756,-353312,39611,-54278,-93014,-502265,-82575,256547
532,-362475,295523,629766,85330,-216211,-344999,-645475,874744,-323317,-387586,-146988,132420
533,-332851,280291,652496,93824,-202200,-318429,-1187844,1776528,-525881,-546089,-312442,119522
534,-279541,262392,681488,110012,-185854,-271948,-1403419,2678638,-560590,-781195,-441246,7443
535,-212857,244151,710736,127800,-169333,-213728,-1172416,3137527,-699502,-854280,-619037,-34694
536,-143018,228915,728818,143372,-155644,-152589,-533388,3652717,-885842,-722407,-691075,4600
537,-62215,208033,733562,154138,-137050,-80841,-114110,4582051,-1617972,-466526,-528073,26099
538,29944,169351,735068,151425,-103147,1962,-295167,5156309,-2543985,-286553,-311688,-108631
539,123862,131454,745596,140136,-70656,83995,-453180,4065856,-1706205,272132,726195,-385564
540,154985,123129,764435,136695,-63618,110453,-511145,-16723,-481469,87691,475321,-521824
541,147034,121529,765541,135656,-62270,103779,663070,216372,-383835,-46112,-940454,-224775
542,152640,127520,747767,139000,-67326,108418,1110979,1626411,122755,-478320,-912174,81468
543,186279,136449,732484,143966,-74896,136894,594881,2639043,-117156,-506693,-725055,340360
544,229596,138440,739173,143895,-76589,173756,-341264,1952427,-226433,-624602,201916,536272
545,259040,142056,757538,144109,-79671,198917,-576212,846845,-332411,-582413,339062,292437
546,257513,138855,772170,142545,-76941,197485,-125556,-612672,-700202,-451224,166365,-234115
547,244902,133655,771974,140603,-72522,186592,521752,221625,-508743,-94150,-129742,-192460
548,254572,134044,754987,140216,-72853,194792,1141361,1706228,-149532,-167280,-383776,235328
549,273225,142323,736110,143179,-79899,210983,949576,1676570,240137,-302506,-673833,427451
550,282910,151712,716119,147182,-87933,219716,1152170,1085003,149374,-120443,-589261,210861
551,283792,160568,692190,151591,-95553,220947,1196645,1363485,265763,706676,109368,-153405
552,304021,177058,681232,157724,-109844,239315,277015,1125013,492519,641339,-205823,19313
553,285983,184582,678823,163216,-116410,224114,376232,-1243792,-217325,-8731,-599907,-67385
554,262167,186120,683220,165965,-117756,203446,-164426,-559789,-305299,-304830,-519627,6017
555,257506,187722,690348,167071,-119157,199443,90470,124328,-311873,-376721,-467842,189510
556,257699,189282,690370,167807,-120525,199671,282425,396154,-257469,-255431,-408338,21923
557,254994,193102,687483,169818,-123879,197448,447929,114753,-92515,-60896,-355241,-235635
558,239844,200710,681069,174348,-130576,184394,512204,-576574,108578,-76228,-345903,-349198
559,205478,212282,671683,181100,-140817,154259,750086,-1607122,274998,-129780,-403473,-360079
560,152324,224734,656758,186828,-151904,106942,1015080,-1973507,294410,-162713,-377448,-98253
561,104457,240966,635368,191884,-166463,63716,1423150,-1475898,441900,-414474,-492665,42659
562,52590,259338,607436,195044,-183079,16268,1481911,-1949020,425826,-629212,-385427,151737
563,-8289,277849,594372,193941,-199962,-39754,745767,-2789516,529650,-571332,-253049,263103
564,-88199,295872,586570,184396,-216534,-112924,985590,-3973026,585185,-317218,-86241,186540
565,-183917,319556,574759,165433,-238498,-200059,1129776,-4169563,591785,53918,25767,235512
566,-260186,333735,573224,142363,-251747,-267653,166947,-2980270,-15737,231330,109464,393468
567,-306945,333220,582610,122712,-251265,-306798,-96659,-1787518,-230614,-61458,-174373,509227
568,-338060,335535,583266,109441,-253434,-332771,408839,-936845,-281602,-177978,-160988,401639
569,-352236,337032,582972,103254,-254837,-344549,187764,-20011,-264025,-257988,-103768,387401
570,-343020,334770,591967,106906,-252718,-336678,-428265,1023101,-314530,-394316,-72289,126387
571,-312839,319174,612021,115706,-238143,-309315,-1253701,1643336,-724878,-519204,-189264,-44941
572,-270347,296092,642568,125824,-216737,-270268,-1607049,2033548,-765234,-599467,-396645,-19276
573,-214356,272344,675453,138209,-194926,-219494,-1569353,2721998,-868403,-640355,-507047,10119
574,-144757,251418,705520,152179,-175898,-157171,-1224841,3431265,-848744,-714413,-627653,24654
575,-64585,233628,727450,164892,-159867,-85659,-767532,4072925,-1069632,-635423,-596672,-25632
576,18859,207190,739278,167961,-136303,-10417,-428012,4261453,-1888964,-361055,-370755,-126845
577,99142,169984,746900,158508,-103696,61538,-204999,3996518,-2161599,-135080,-54012,-173561
578,159495,144449,751051,148043,-81714,114051,170299,2531900,-1190361,16054,128351,-165787
579,176496,139874,748033,145797,-77810,128577,412396,726352,-359552,142203,-303257,-160599
580,185218,142370,745855,147077,-79940,136016,369195,1010275,-195713,-2235,-520564,-34372
581,203597,149588,740226,150554,-86111,151795,544835,1712537,122945,-354268,-453632,160208
582,231151,155868,735366,152828,-91504,175561,355911,1651471,-159238,-489723,-145887,317609
583,248231,159440,738246,153729,-94579,190354,-83021,848687,-153798,-648321,128277,192753
584,257011,164350,754317,155632,-98818,198097,-622692,60598,-271926,-440676,-50407,-240510
585,256636,164221,767529,155592,-98706,197769,136667,66103,-441817,-199228,-98996,-148126
586,249879,162008,748949,154923,-96794,191864,1394832,695206,-348377,37114,-162523,15753
587,253507,166693,723990,157039,-100844,195165,1193130,1394945,128949,26072,-513163,433441
588,271632,177309,705236,160949,-110063,211294,901917,1746021,231150,-131219,-522591,369751
589,288588,186902,688502,164083,-118440,226502,987648,1515933,154064,-686,-357384,175390
590,311249,199444,682386,167597,-129460,246993,-74621,1410872,441608,254207,-424946,-4770
591,313175,218117,690262,175949,-146004,249846,-3661,-626095,420145,57730,-578294,5438
592,281611,230470,692379,184834,-157036,222526,-54789,-1308912,192063,-371551,-509278,-131074
593,259172,240339,701535,191025,-165898,202865,-128736,-856229,5095,-591501,-373142,-25476
594,239122,242012,703134,193041,-167404,184908,256383,-609643,-455070,-476893,-247079,-183803
595,225386,237872,697914,191915,-163679,172466,760906,-49494,-579382,-225860,-368420,-81029
596,216013,234940,679773,190991,-161046,163997,1186595,408335,-355873,-157966,-514577,54515
597,206050,238630,653940,192909,-164360,155103,1557104,310982,-41240,-118120,-531952,-63972
598,188657,245055,625291,196007,-170147,139494,1448663,-62618,-25495,-56734,-393095,-195197
599,164207,252276,600715,199073,-176675,117394,1366170,-545175,42913,-142793,-449493,-35340
600,128912,263415,577253,202750,-186784,85230,1277847,-1255101,232281,-304338,-519126,133053
601,66471,276851,557735,203671,-199047,27991,1109699,-3312568,216652,-378302,-318677,-10041
602,-41210,289375,541811,192340,-210545,-70280,967809,-5197663,228758,-76490,-41891,-227917
603,-143142,306064,543015,173416,-225959,-162685,79738,-4453530,589070,283896,150054,7707
604,-217989,318562,562627,153366,-237572,-229420,-531667,-3193780,437907,295598,166914,504130
605,-271750,317839,585414,132600,-236899,-274974,-844855,-2721617,-150272,-354702,-213870,702561
606,-318815,311438,600618,110574,-230946,-312866,-279213,-1975839,-395103,-492984,-329610,659491
607,-342745,305114,606212,97706,-225079,-331108,-152436,-318965,-597166,-577436,-191723,342512
608,-333280,291412,617035,97455,-212420,-320915,-790024,1043169,-755054,-535819,-164099,309233
609,-300156,270184,640075,104415,-192954,-290162,-1347593,1803765,-801584,-524773,-277134,328941
610,-248518,248157,668101,116601,-172949,-243955,-1316260,2607922,-797053,-598240,-321414,257847
611,-183227,229132,691927,131436,-155838,-186544,-967125,3314305,-859614,-629080,-350321,148920
612,-103540,209309,710845,145282,-138180,-116366,-834148,4303824,-1210330,-528729,-345212,18122
613,-2841,179787,731646,151854,-112222,-27004,-1102807,5192339,-1794458,-146386,-112564,-172453
614,110340,148143,759366,148163,-84875,71970,-1041066,5087072,-1630453,30156,4924,-432987
615,189034,132346,783553,141776,-71413,139213,-685382,2426840,-814848,42220,-58327,-527177
616,206794,132115,802581,141348,-71216,154266,-417428,189709,-235406,27390,-595510,-481958
617,219070,138476,807252,144332,-76619,164808,300687,1321188,167675,-280328,-864689,-238990
618,244856,152326,798498,150309,-88459,187207,732534,1913417,341916,-385092,-762257,-105322
619,260229,162164,785502,154309,-96929,200780,787870,1127111,61284,-801781,-461765,169588
620,264527,167435,774121,156633,-101488,204707,648238,698116,-161332,-732052,-119881,136608
621,263776,166547,770998,156247,-100719,204021,191533,119373,-489587,-453620,217058,64403
622,263736,165024,776096,155489,-99400,203920,114208,325975,-407072,-289332,153605,51457
623,257770,164283,766153,155547,-98760,198749,977791,238624,-357131,43998,78396,213107
624,261493,165379,754411,155831,-99709,202002,543105,1097746,-108100,196103,20887,513306
625,266779,180390,737224,162840,-112748,207220,1332596,786791,778029,163322,-620949,309754
626,245465,203892,702741,175516,-133386,189444,1609344,-193612,892313,-115849,-891814,-148560
627,231458,223922,684759,185451,-151179,177584,638139,311939,516345,-285010,-673965,-102383
628,244399,230015,687966,187477,-156629,189299,-286640,1251334,-500788,15745,-72170,322362
629,272911,223356,710910,182441,-150675,214468,-835028,1055887,-698784,273482,266830,373795
630,285752,226597,732725,182724,-153571,226027,-662532,-92258,-105382,439031,-226749,106802
631,261053,232427,747250,187424,-158790,204263,-299975,-1634666,-180989,109884,-508394,-420810
632,236621,236578,761152,190810,-162517,182519,-398390,-794680,-232959,-289833,-299087,-87695
633,225541,237636,765482,191805,-163467,172599,410729,-133255,-373433,-616803,-295496,-19823
634,215003,235110,751859,191100,-161197,163093,1081545,185452,-469569,-527658,-392233,-198534
635,198288,234142,728307,191110,-160329,148083,1412980,-197769,-293711,-267154,-448842,-225149
636,162740,239951,700147,193750,-165548,116144,1578173,-1284313,85918,-150974,-456119,-244709
637,101789,253805,673545,197200,-178059,60903,1291739,-2787510,357172,-121848,-386830,-167678
638,15432,270158,659432,194629,-192929,-17855,923866,-4150909,371304,-252134,-313825,-73143
639,-89735,286225,648005,180399,-207647,-113301,846094,-4903526,305496,-212970,-126804,117655
640,-186811,297674,647882,156847,-218197,-199671,134265,-4212028,90266,-46217,84506,488404
641,-257280,296716,660303,131194,-217312,-259464,-462148,-3023477,-383304,-215143,37585,792657
642,-309165,289607,669997,107460,-210758,-301079,-141784,-2139883,-514658,-615832,-258260,596830
643,-342497,283364,672507,90526,-205018,-326733,-4390,-837250,-583734,-660451,-278359,428500
644,-345947,275192,677155,86117,-197530,-327842,-226973,643323,-617096,-602316,-292881,498350
645,-321219,264703,684099,93417,-187958,-306063,-270421,1803930,-709686,-511335,-431543,572153
646,-276905,251597,692208,106989,-176059,-267802,-522063,2676642,-820452,-435338,-415869,368226
647,-214923,232644,710309,122440,-158984,-213525,-1114553,3224462,-906478,-348890,-329031,28411
648,-132068,206974,743315,136890,-136112,-140223,-1794551,3999402,-1236959,-291211,-312322,-24978
649,-33060,172312,781792,143133,-105717,-52088,-1793024,4538361,-1752523,-233581,-278556,-83740
650,73879,143753,820508,143233,-81119,41100,-1495437,4542784,-1252659,82266,-83425,-647921
651,151243,131831,849745,141264,-70975,107177,-649825,2643479,-674956,-23141,-140979,-557595
652,183410,133097,858154,142215,-72049,134446,129237,1384564,-79311,-252042,-387021,-304423
653,206288,144143,857333,147673,-81453,154018,335866,1698656,314836,-454003,-448388,-221807
654,239218,159161,856194,154101,-94339,182592,254320,2102550,346864,-583417,-395797,-198684
655,262135,164797,840126,155492,-99204,202531,1443183,1579903,-250912,-508697,-243578,160360
656,254942,161827,805040,154505,-96638,196215,1694350,356639,-386459,-635594,71086,276203
657,245381,164972,793306,156683,-99356,188093,183683,159494,-125430,-484269,-56948,8248
658,234077,164696,792315,157151,-99117,178326,815272,-462224,-506918,-165403,-266126,12888
659,210643,160642,761307,156016,-95616,158016,1587031,649068,-429244,135508,-159657,491220
660,236829,164560,756261,156946,-98999,180698,-209555,2295123,11160,-90138,-292109,820590
661,276633,176171,769865,159973,-109072,215574,-59276,1366630,306092,171392,-334830,275048
662,263202,194622,741431,169953,-125213,204698,1921269,330640,855365,1131536,16059,-520350
663,267322,211910,736063,177705,-140488,209033,-486014,229158,349434,234349,-439356,17246
664,240124,222955,750341,184567,-150317,185282,-187706,-2065273,47878,-262413,-486350,21832
665,199993,231360,754890,189847,-157834,149585,103318,-1401571,53334,-375755,-264158,-225812
666,177487,234231,754724,191342,-160409,129416,383699,-502594,-426560,-339270,-176942,-198685
667,161847,228175,746201,188544,-154981,115422,777205,-145825,-742598,-165345,-243953,-111892
668,149004,223456,729404,186173,-150764,103994,1130356,132002,-463818,-4191,-414309,-30150
669,131749,229333,707913,188230,-156017,88481,1216668,-275382,105601,-162651,-613157,20198
670,94318,244526,687267,192709,-169671,54485,1273198,-1609572,438840,-297806,-631379,-228733
671,33760,262705,670213,194140,-186138,-881,992823,-2756927,428737,-312802,-451841,-132368
672,-42598,278609,660132,187904,-200660,-70597,760518,-3571457,262584,-430330,-364932,206299
673,-129173,288996,657914,171174,-210196,-148395,234174,-4018652,131294,-449565,-228838,524134
674,-205232,296244,665104,150129,-216877,-215307,75630,-3298691,43806,-382743,-185094,609951
675,-256506,300711,668722,132881,-221004,-259458,100663,-1788231,-218601,-439668,-150404,544651
676,-283618,294497,675970,119895,-215265,-281000,-262202,-795696,-627263,-471024,-158813,464783
677,-290276,283290,681263,113229,-204951,-284513,-203119,369956,-738370,-452396,-298826,550953
678,-271754,271768,690688,116587,-194400,-267256,-542341,1379758,-690760,-401570,-295111,582630
679,-239913,256380,707977,122978,-180393,-238278,-928384,1603952,-743950,-381273,-325642,560640
680,-199573,236128,735665,129035,-162111,-201332,-1526317,1850479,-870219,-311525,-247382,242095
681,-144618,210237,778107,134873,-139002,-151261,-2264035,2333964,-992429,-287975,-250640,104285
682,-63653,175229,834210,138582,-108254,-78325,-2713680,3522546,-1600638,35358,-22951,-95878
683,39249,141559,893067,138531,-79247,11904,-2441290,3887944,-1306511,57885,136718,-694238
684,118811,126712,949136,137373,-66643,79870,-1880314,2026962,-741527,-99571,-124421,-1033996
685,148986,125857,970970,138029,-65921,105356,153341,1054236,-75530,-304482,-786947,-314853
686,167270,140754,951352,146213,-78560,120712,1463032,2345507,613491,-427426,-702683,58951
687,205432,161623,924649,156649,-96462,153537,1105654,2988355,535395,-660076,-355435,76603
688,239174,171479,920490,160273,-104993,182934,164987,1333051,-13849,-705357,85057,121881
689,234852,176972,917431,163205,-109769,179345,460941,-155531,-172243,-622305,185216,169126
690,225465,176180,916792,163245,-109079,171162,202668,-277897,-515721,-512956,176499,115556
691,189091,165274,912335,158764,-99616,139457,779994,-1800820,-1120760,-290198,248183,-752061
692,135070,151494,867607,151049,-87745,93038,2922959,-379052,-1020019,517734,-200227,-99899
693,143761,146684,824189,148854,-83624,100574,923155,2706382,-451486,428086,-186511,799365
694,198712,152221,843681,152006,-88369,147637,-1083190,2338611,17806,-55687,-315494,969097
695,226240,162171,861098,156238,-96935,171498,461021,34569,239848,-135084,-608457,445131
696,193056,176201,816440,164149,-109099,142970,2323036,221468,371187,552958,-488673,-27882
697,212261,181557,827059,166352,-113767,159772,-1546751,778495,-240874,-33809,-280254,-220922
698,214241,181926,866641,166471,-114089,161504,-1029375,-1147257,-489028,-240058,-527826,255416
699,195334,179285,885165,165630,-111785,144979,-455529,-761265,-544268,-259893,-395716,-207259
700,189760,174280,899741,163241,-107427,140089,-249398,-113837,-657957,-234510,-269031,-135720
701,188274,168660,903467,160466,-102549,138769,282539,311291,-606716,-115173,-387176,-143050
702,185104,167627,895468,159975,-101653,136016,791859,278279,-252741,-26684,-609491,-148157
703,166756,175147,879163,163683,-108181,120084,1009225,-570983,150450,-47772,-781949,-342094
704,127310,188591,863617,169178,-119921,85460,855097,-1691826,327066,-107513,-733696,-299107
705,70499,202442,855914,171812,-132104,35125,503149,-2632228,306584,-317894,-533995,68763
706,7051,215415,857844,169988,-143600,-21373,140987,-2998402,284228,-562729,-411492,378984
707,-55536,226211,867965,163594,-153225,-77007,-204365,-2986307,223048,-561797,-224698,565889
708,-112023,230295,881829,152295,-156879,-126301,-148935,-2914501,67380,-526496,-136571,616374
709,-165436,231642,892361,137975,-158085,-171968,-69566,-2500827,-87490,-363358,58451,501686
710,-214287,232535,900223,122613,-158887,-212980,-44779,-2123192,-240557,-213260,131366,303501
711,-249906,231055,911925,109294,-157560,-242004,-452933,-1401156,-97986,-128714,-19572,182867
712,-261410,230870,935725,104892,-157394,-251326,-794126,-433535,109898,-161009,-285944,387654
713,-261510,227942,957048,103674,-154773,-250852,-590301,-61053,-241668,-314162,-539145,553852
714,-255424,220441,972896,102909,-148075,-244500,-584409,554479,-463538,-464247,-549063,448653
715,-234679,206137,993978,104469,-135371,-225002,-1098764,953713,-754993,-578371,-318037,316744
716,-205478,181877,1021877,103746,-114046,-196861,-1492238,1307191,-1164120,-512874,-121482,224409
717,-157054,143828,1061851,100486,-81184,-150978,-2501010,2020412,-1758534,-175235,191771,-159105
718,-76163,97851,1133316,96493,-42482,-78653,-3645626,2529454,-1525763,236244,348244,-551453
719,-4170,68609,1212492,92965,-18476,-17360,-2643461,848874,-903449,177654,-74733,-670210
720,3648,55472,1251918,86479,-7854,-9771,-756950,-994130,-655039,48323,-534865,-731938
721,-24215,54650,1251154,81812,-7192,-31701,774101,-745700,-173591,-161168,-833377,-555375
722,-29578,71415,1232568,90575,-20759,-37951,1378274,1449167,533913,-352471,-904435,-101570
723,-9971,95339,1205892,107123,-40401,-24844,1546653,2111214,526763,-617738,-820875,225151
724,-1797,109712,1181171,116207,-52355,-19615,1314737,907640,-117453,-584478,-457098,375624
725,-13233,109771,1159434,114480,-52405,-29015,969673,49126,-641123,-380008,339201,459335
726,-15452,113009,1160158,115866,-55115,-31177,-145561,301191,159408,-364076,668052,619637
727,-10529,122852,1174223,121891,-63385,-28126,-37321,-310624,152401,-565428,-46914,641413
728,-34306,127528,1169992,120359,-67333,-48295,627715,-479295,-334120,-620857,-326093,513481
729,-31890,129557,1162612,121844,-69049,-46523,527054,1392521,-278468,104967,-131155,601186
730,-16817,143472,1150904,131591,-80880,-35438,1351202,1281376,693104,865835,39321,277067
731,-360,178686,1125624,151708,-111263,-24779,1395648,1864341,1122092,1170501,-467787,-180262
732,26449,190102,1135142,161013,-121246,-2563,-846772,1193028,-81642,690052,-554377,-26179
733,49936,187016,1174694,162401,-118541,18028,-1691729,188354,-384290,-137158,-214767,507825
734,60439,177618,1219000,158979,-110333,27693,-1716465,-425949,-719098,-25169,-102598,276986
735,67505,162657,1263681,152277,-97354,34625,-1781230,-359769,-962121,-86720,-91131,94699
736,80341,144935,1307292,144399,-82129,46532,-1620245,-46592,-1098130,-128311,-130848,113203
737,96589,125477,1346150,135403,-65600,61193,-1400812,225859,-1222997,-143790,-313590,241258
738,119399,106212,1380491,126281,-49434,81014,-1143588,755342,-1189832,-91195,-354277,173631
739,150176,90526,1409220,118621,-36423,106894,-886329,1162950,-1048620,-52240,-397088,30168
740,179115,77384,1436131,111434,-25629,130756,-888107,825032,-990515,-87625,-585814,-131788
741,199269,64984,1468312,104041,-15534,147076,-1149260,164409,-992561,-123400,-657768,-80877
742,212571,54567,1507145,97593,-7125,157635,-1372785,-324206,-885605,-161079,-728099,-25107
743,223101,47866,1545186,93256,-1750,165916,-1129900,-209726,-687504,-184407,-802840,89263
744,229505,43969,1574342,90667,1364,170912,-763872,-326462,-583316,-148996,-800842,-114419
745,222367,41113,1594885,89219,3641,165147,-425041,-838155,-520473,-96339,-739001,-180659
746,198697,40898,1606669,89709,3812,146310,-85169,-1443135,-306884,12942,-530768,-137545
747,155904,44035,1607030,91593,1312,112206,462943,-2067760,-155909,99284,-343499,-14849
748,95117,49124,1594510,92116,-2758,63524,887818,-2446508,-114000,183051,-133193,324574
749,31912,57464,1581950,91266,-9458,12513,683295,-2425245,73620,91127,-142651,604879
750,-22765,68880,1582528,90252,-18697,-32225,152216,-2400804,282455,61304,-226063,740132
751,-70348,81568,1591239,88762,-29055,-71722,9564,-2257857,356050,102191,-257957,689724
752,-112830,94965,1602077,86775,-40091,-107474,-32258,-2000186,423795,107826,-358004,596538
753,-145140,108191,1620357,85677,-51085,-135297,-457198,-1654277,601981,148688,-416575,523699
754,-164904,126662,1651364,89730,-66601,-154259,-711281,-1389242,1142523,278028,-507901,582229
755,-179168,152015,1685286,98051,-88192,-170222,-587732,-1202060,1378155,119972,-436383,501345
756,-196743,179551,1717298,105509,-112016,-189357,-622746,-1599424,1412603,-23793,-377388,370393
757,-228930,202297,1760232,104843,-131977,-219626,-1423922,-2752540,1429848,-236444,-173177,229718
758,-267155,216448,1822195,96826,-144518,-253184,-2157839,-3004431,1388726,-243441,-149604,404481
759,-293124,216438,1892382,86614,-144509,-273903,-2264814,-2793396,1186874,-365295,-154496,581739
760,-323674,218151,1955628,74606,-146034,-298304,-2146230,-2516961,952339,-493408,-293886,613512
761,-347080,216133,2012819,63583,-144238,-316000,-1927855,-1905196,689230,-444254,-320248,576305
762,-359264,209438,2063162,55451,-138295,-323769,-1814231,-1156482,368598,-404231,-270696,503493
763,-358593,197496,2109190,50946,-127742,-320400,-1794712,-464930,38835,-403403,-257779,424578
764,-346392,179655,2152287,48941,-112106,-306829,-1834504,67114,-310365,-392960,-235497,358167
765,-325429,155846,2191880,47498,-91484,-285172,-1813392,575684,-702906,-363532,-247713,243812
766,-295834,126225,2227616,45661,-66230,-255632,-1764716,1041564,-1099474,-306138,-378847,191689
767,-260596,92792,2258736,42137,-38294,-221115,-1541311,1326360,-1384561,-160906,-546507,147467
768,-225678,59373,2283519,36190,-10998,-187213,-1266658,1316270,-1496930,-12718,-597347,-40381
769,-198439,30325,2305786,28273,12195,-160454,-1025922,774309,-1239249,39649,-681210,-243532
770,-190856,13447,2325643,20685,25433,-151107,-571322,-467677,-599958,235774,-771703,-340602
771,-202038,12831,2339815,17143,25913,-159073,-105151,-547538,51800,121626,-934766,127982
772,-210513,26395,2341079,22482,15292,-168386,823692,130872,354384,434769,-360135,545223
773,-214235,42626,2326420,30523,2435,-174878,1097177,820522,13580,642716,398649,816898
774,-208065,59653,2325597,41806,-11223,-174151,237825,324927,817924,-194266,-110490,745095
775,-193218,80157,2353501,57352,-27898,-167336,-887092,587239,930440,-435337,-517109,743820
776,-148455,85410,2398853,72714,-32209,-133836,-1435739,1264112,235668,-658692,-440624,468620
777,-122414,77622,2427257,75048,-25824,-112149,-642427,407797,-758617,-606216,-371188,239139
778,-123778,55780,2440472,62526,-8100,-109424,-785482,-278258,-1428512,-275625,-160304,355371
779,-112333,25401,2471879,47585,16075,-95353,-1719429,89380,-1447257,-41461,-140062,700126
780,-85932,-4570,2519177,35051,39369,-70465,-1977803,94464,-1162785,172153,-311320,736440
781,-63400,-25540,2574328,26156,55325,-50468,-2057733,-591106,-678560,280778,-569768,544310
782,-42508,-37791,2628183,21850,64514,-33362,-1639669,-150368,-436923,-10462,-562829,191968
783,-16530,-45336,2670533,20884,70124,-13423,-1288974,307333,-382716,-83775,-490970,61189
784,8384,-52884,2715387,19202,75697,5589,-1562553,-147185,-500482,-150513,-469809,14360
785,28481,-64317,2766405,13842,84066,21348,-1711662,-517681,-692260,-380643,-558989,420140
786,47488,-76527,2818782,7415,92905,36145,-1704036,-474065,-683717,-401772,-601031,499779
787,73055,-86297,2869619,2788,99902,55130,-1536577,54538,-619131,-370092,-613582,561682
788,105410,-95561,2916479,-1687,106476,78572,-1386577,333520,-718854,-218018,-457971,154756
789,136419,-105358,2959000,-7411,113361,100725,-1193909,409803,-781699,-143891,-493955,20604
790,167165,-114053,2995806,-13098,119416,122284,-943539,599494,-750283,-92595,-543680,-48043
791,194876,-121186,3027422,-18321,124340,141400,-790481,509326,-711711,85572,-703954,90325
792,216726,-127835,3057038,-23582,128898,156236,-743753,208818,-727023,164807,-704117,124776
793,230579,-132933,3085702,-27745,132372,165491,-651820,-98814,-598868,258005,-691447,147015
794,236029,-133962,3105076,-28705,133070,169143,-218954,-167310,-361816,110559,-690452,53611
795,227347,-130748,3112628,-26032,130885,163378,53603,-557933,-148972,28570,-702503,-25005
796,205204,-125328,3117593,-21491,127184,148420,96037,-1231707,-55945,-26782,-715693,-127464
797,162722,-116660,3116110,-15017,121219,119233,476325,-2073431,186004,33424,-645093,-66233
798,94139,-100707,3100205,-5947,110101,70940,1079922,-2729965,542506,158524,-488390,105000
799,9818,-75667,3068939,3982,92285,9238,1823111,-2783751,827641,285056,-318643,89081
800,-86008,-44782,3023274,9566,69713,-63648,2319852,-2977901,730946,203238,-174641,243235
801,-177405,-15568,2986937,7034,47773,-134870,1676797,-3086824,555678,137335,-48225,405429
802,-258800,1485,2990302,-6890,34708,-196611,-372923,-4400314,469337,190977,40891,784616
803,-326171,5585,3034358,-28152,31540,-244203,-1327632,-4073251,758147,417516,-337412,925194
804,-360392,24734,3078955,-31049,16599,-273320,-362503,-1994761,1750330,515994,-491919,847789
805,-363097,68077,3119842,-9815,-18045,-288546,74159,-701798,2506956,281884,-552276,273996
806,-374547,108425,-3125890,4825,-51281,-308490,-165278,-1903270,1876572,-24717,-401792,151483
807,-410885,129848,-3087298,-1914,-69296,-340466,-760813,-2649397,1170479,-163044,-262515,289126
808,-441834,135768,-3046465,-14241,-74317,-363853,-1074059,-2012830,760482,-435812,-267382,479581
809,-457737,139031,-3004560,-20793,-77093,-375811,-1137750,-1370632,856423,-489196,-346089,429345
810,-461092,138167,-2959490,-22856,-76358,-377837,-1396642,-780879,650896,-428478,-501151,443640
811,-454319,132081,-2916343,-22027,-71188,-371302,-1378470,-331373,379119,-428299,-603382,498719
812,-443284,122412,-2878199,-20745,-63014,-360716,-1318242,-54447,72605,-523836,-670072,477269
813,-429803,107682,-2845165,-20786,-50660,-346853,-1296047,230371,-310028,-592704,-700676,462734
814,-408025,87825,-2816569,-19827,-34196,-325680,-1288220,948527,-622814,-631307,-748680,397723
815,-376573,64559,-2791648,-17262,-15190,-296810,-1221165,1361618,-887795,-620199,-779909,357836
816,-333625,37442,-2768252,-13716,6560,-258918,-1262841,2042431,-1143194,-604565,-800711,229536
817,-278694,6856,-2745646,-10458,30554,-211959,-1216681,2551479,-1410580,-469501,-807480,150106
818,-218361,-28123,-2728460,-11964,57271,-160683,-936999,2843158,-1867268,-229364,-788618,56609
819,-170954,-65173,-2722234,-22410,84689,-118950,-426398,2150499,-1985659,103637,-635188,37216
820,-147318,-92182,-2725018,-34539,104085,-96722,100346,1291766,-1347424,243437,-465040,95721
821,-138000,-98743,-2727542,-36875,108720,-89011,200741,614294,-381250,116776,-575830,-23256
822,-124795,-95659,-2715423,-31961,106545,-80805,-313048,676114,55179,-40972,-691820,-33216
823,-89724,-89258,-2691935,-20643,102010,-58231,-420584,1606857,225219,-189236,-790312,-7009
824,-52118,-79435,-2679473,-7375,94994,-33890,183859,1715624,206869,-296773,-683458,144430
825,-30123,-69708,-2678159,2645,87981,-19872,277219,1213084,58614,-266220,-580513,131435
826,-5236,-65389,-2667631,9064,84846,-2728,-314634,1279993,-176342,-128428,-240510,152392
827,30538,-69213,-2645001,10735,87623,23324,-688247,1348797,-541167,-98086,26001,582885
828,65116,-73741,-2620113,10870,90897,48521,-620212,1003733,-355447,-125061,70182,687920
829,81580,-71849,-2602157,13408,89529,60210,-260841,209138,-159639,-114799,106704,684989
830,73685,-70789,-2590659,13567,88763,54456,-36684,-875451,-319053,269686,-180935,-179007
831,51138,-67560,-2597626,13899,86423,37969,948494,-88250,-98467,196387,-506231,-4836
832,39077,-53776,-2626471,22065,76353,27991,1484329,1053553,278758,141103,-707633,108230
833,39253,-34674,-2653591,34772,62186,26353,1305135,1307794,523940,409997,-528517,391119
834,46608,-16056,-2667922,47631,48144,30208,611754,1013316,441494,397138,-514476,387263
835,57169,-2180,-2662321,57513,37532,37100,-131638,423220,270415,-58317,-715687,232605
836,64203,3418,-2642906,61686,33215,42071,-614416,-124128,-160613,-242481,-616857,219990
837,66118,414,-2616916,59954,35534,43754,-800218,-526809,-529931,-259426,-576101,254501
838,65799,-8857,-2591355,54025,42654,44172,-763439,-456569,-810707,-255848,-541503,258476
839,69953,-22173,-2566571,45779,52782,48259,-736883,-150353,-954056,-63611,-531886,171962
840,75879,-34009,-2547273,38491,61688,53508,-391215,19265,-780943,243359,-513006,143610
841,76848,-38141,-2532613,35831,64775,54506,-269589,-261996,-347103,243286,-679820,-41301
842,65146,-35933,-2523455,36364,63127,45664,57315,-725013,-192539,9937,-628611,-152668
843,45971,-33177,-2522098,36432,61065,31202,315325,-569147,-233665,-171223,-545617,82085
844,28802,-30564,-2528285,36345,59105,18211,597842,-201303,-293052,-253121,-622011,52138
845,11000,-28965,-2540205,35287,57904,4837,786887,-243154,-380340,-168292,-711050,-49996
846,-21475,-25042,-2561233,33378,54949,-19682,1250841,-849337,-239590,-60868,-767207,-6923
847,-71686,-14239,-2586048,31785,46761,-58349,1139527,-1795140,82379,-113400,-720368,140524
848,-138515,259,-2594527,26449,35654,-110105,639831,-3329324,295567,-68085,-617694,154178
849,-232420,18057,-2598753,11040,21835,-182214,756800,-4599445,538362,165738,-377663,115311
850,-321189,40781,-2592308,-7160,3905,-251246,190953,-4107758,879883,275566,-105370,493499
851,-380236,51083,-2558389,-25593,-4327,-295111,-1013701,-3190718,633148,236581,-135850,764081
852,-420469,51894,-2526361,-42823,-4978,-322412,-461597,-2497648,261171,-206287,-356145,741594
853,-462131,56394,-2513463,-60074,-8596,-351246,12266,-1754757,18906,-345896,-304523,395152
854,-476910,54262,-2500616,-68254,-6879,-359971,-331971,-213419,-186299,-388665,-362087,546623
855,-460358,50073,-2486546,-62246,-3517,-347858,-293297,1278862,-177259,-583196,-503632,509958
856,-416376,44442,-2470624,-44680,987,-317194,-576611,2452137,-299314,-504356,-471530,270570
857,-350349,29885,-2448064,-24296,12542,-268117,-1077405,3228547,-620001,-331076,-452995,173351
858,-264238,6089,-2417410,-6033,31149,-201659,-1505566,3935816,-1028754,-205570,-523940,110479
859,-161661,-24117,-2384269,5848,54251,-121753,-1406301,4539847,-1385621,-146652,-664443,-81000
860,-56397,-55406,-2356781,7994,77551,-40711,-1004032,4751540,-1659752,-6418,-592330,-150598
861,41669,-80608,-2337287,4046,95836,32379,-471225,4294277,-1258066,-18689,-462940,-164148
862,107928,-91349,-2324539,1407,103494,80139,-150879,2400723,-597512,-7886,-397082,-272729
863,129088,-91424,-2311784,2240,103548,95123,-238483,301223,-295264,20196,-592677,-482660
864,137598,-87779,-2304912,5070,100958,101050,269058,772293,8916,-298720,-717803,-166138
865,144313,-75482,-2324856,13824,92152,105542,1408085,1641912,264653,-326683,-559751,112787
866,139882,-67269,-2366966,19378,86212,102137,1923204,1357620,-215289,-288187,-232187,240549
867,125620,-67409,-2404068,18818,86313,91798,1229133,721946,-486378,-210158,28880,396871
868,129565,-68737,-2410054,18048,87277,94702,86789,662625,-378913,-83976,-58462,567398
869,144737,-69882,-2400770,17704,88107,105720,-133857,862928,-461896,85725,-178555,499313
870,168519,-70733,-2389997,17479,88723,122944,-15151,1350721,-272617,444151,-453004,199190
871,173227,-63074,-2408148,22766,83161,126329,1583686,997103,191931,1181189,-252405,-463573
872,160381,-44171,-2457011,35473,69260,116745,1920700,1557094,784294,481546,-665277,196539
873,155172,-22125,-2471722,49997,52746,112555,377267,-276246,524820,-161550,-697011,273453
874,139408,-12222,-2463414,56073,45224,100392,-444812,-502239,-55336,-262778,-445225,368731
875,153428,-10342,-2437479,57620,43789,111051,-673047,436006,-324121,-175015,-721974,-24360
876,163227,-9630,-2426142,58224,43244,118529,149163,379779,-295872,-34353,-776499,-200432
877,161063,-8494,-2429162,58930,42376,116863,406903,282995,-291811,-45847,-696651,-36810
878,157641,-7292,-2435264,59655,41455,114230,579416,422051,-317490,-130405,-527807,169055
879,152540,-5143,-2449735,60947,39808,110289,943614,588772,-235043,-159299,-559531,98045
880,141885,-1290,-2471817,63162,36847,102029,1149247,340706,-183082,-176835,-613424,18842
881,119320,3007,-2494513,65077,33533,84518,1130416,-311085,-205879,67039,-733615,-7073
882,87372,6859,-2514524,65676,30553,59687,988390,-816589,-208360,66441,-730634,17759
883,48722,13646,-2531769,66637,25279,29366,939743,-1237987,-12675,4749,-791828,64497
884,-1055,25775,-2545370,68122,15780,-10302,809959,-2075910,253479,-354707,-593761,55153
885,-75467,39955,-2547905,63981,4562,-69649,427258,-4110448,284392,-300670,-465600,-18937
886,-188227,52355,-2556887,43640,-5347,-157705,925306,-5316149,71499,-185510,-335146,40982
887,-294607,63438,-2557670,14745,-14283,-238678,156664,-4577901,201916,257279,2997,457907
888,-365674,69439,-2538641,-10215,-19151,-290750,-419441,-3292617,294522,232799,-88905,606170
889,-413659,68850,-2519449,-31461,-18673,-323458,-333886,-2205859,-89765,119264,-186369,604058
890,-449329,68627,-2514879,-48148,-18491,-347154,238024,-1314972,-397764,-300204,-310375,551339
891,-464581,69283,-2518480,-55189,-19024,-357364,489828,337512,-409873,-266629,-247144,569788
892,-448536,68877,-2520469,-47652,-18694,-346718,69663,1533284,-445319,-339626,-307212,371978
893,-416179,59230,-2511125,-37282,-10882,-321999,-547373,1742833,-631495,-337179,-439856,325606
894,-375121,39672,-2493657,-29273,4787,-288020,-1038173,1970285,-875565,-388553,-599263,197419
895,-319867,15456,-2467868,-20352,23866,-242885,-1296163,2456018,-910036,-450346,-790462,109590
896,-249282,-9145,-2437917,-10012,42874,-187125,-1293577,3182873,-996407,-459984,-910756,10755
897,-164284,-34822,-2414697,-1466,62296,-121251,-840277,4191668,-1383366,-354043,-890903,-202
898,-68654,-65798,-2403955,-1027,85144,-47721,-483094,5023520,-1926731,270640,-149377,-256717
899,31136,-97070,-2396243,-8467,107541,26593,-251401,4681560,-1593525,211918,107859,-287847
900,88880,-106219,-2384776,-10181,113963,67607,-167198,1362325,-377319,258858,-55424,-202534
901,90423,-106308,-2376890,-10149,114025,68687,96693,35077,-360957,-32144,-739888,-259598
902,101603,-96876,-2375781,-2815,107404,75961,297742,1422376,451586,-239825,-748936,-121335
903,129540,-81355,-2385271,9310,96371,95104,988336,2181626,192654,-301738,-707601,162881
904,139843,-73712,-2412519,14935,90876,102278,1196763,1574569,-25165,-592154,-174762,529580
905,146697,-63263,-2425214,22296,83298,106998,439215,807296,167079,-590405,-192682,418750
906,137161,-59669,-2429795,24502,80674,99953,566218,-486143,-426443,-206000,-164302,-6899
907,115482,-62358,-2452839,21857,82637,84235,1404749,607439,-506378,389800,-388234,405547
908,115786,-54191,-2486494,27422,76659,84113,1458097,1879182,294600,405201,-629112,403747
909,118375,-35660,-2521886,39954,62923,85277,1829056,1258312,459288,271620,-558324,82576
910,110660,-21556,-2556542,48865,52316,78900,1200475,1160487,160194,415481,-210100,150491
911,112812,-8633,-2563580,57340,42482,79983,427457,99003,414664,168008,-702144,189203
912,81022,8600,-2572044,66311,29203,54682,706837,-1366688,406743,117136,-707525,-20663
913,56829,21339,-2574652,72187,19265,35056,253021,-249936,182089,-91026,-569048,322021
914,52676,29071,-2576981,76527,13183,31229,579856,266700,-95096,-144041,-560434,-18467
915,46800,31934,-2587747,77677,10923,26404,707645,436646,-347590,-56692,-587958,-75546
916,40334,32662,-2600665,77436,10346,21276,821746,353443,-418257,680,-522410,42374
917,28355,32998,-2617083,76285,10081,11867,925273,108135,-434312,-73169,-603230,37792
918,7502,34724,-2634864,74702,8715,-4600,967636,-361036,-358640,-94380,-672205,-43046
919,-22741,38847,-2651683,72748,5443,-28651,926401,-855721,-223697,-154484,-771840,108323
920,-64295,46770,-2667215,70149,-873,-62017,942712,-1567001,-52824,-188369,-702292,285107
921,-126623,56539,-2677711,62273,-8712,-111745,691912,-3165432,27589,-188778,-523889,276149
922,-218873,69351,-2682070,43725,-19079,-184413,652237,-4584333,316482,116910,-252475,2489
923,-316214,89051,-2678207,19629,-35207,-261169,391187,-4574419,726979,335707,-86857,105413
924,-391375,107187,-2662317,-3221,-50247,-320024,-33313,-3403094,681920,389411,-63165,352318
925,-446897,106205,-2633898,-29689,-49428,-358023,-1052300,-3139083,12158,-55358,-268253,666211
926,-492174,97232,-2612690,-56358,-41968,-385045,-361190,-2062244,-281360,-376299,-409334,401180
927,-521203,91825,-2607593,-73893,-37495,-401735,-53361,-760549,-529774,-359894,-380330,439385
928,-523082,84567,-2604985,-78037,-31516,-400269,-59409,720294,-552010,-368628,-394426,529395
929,-495559,75993,-2598801,-67540,-24492,-379718,-342323,1880240,-538381,-414266,-468436,368814
930,-450146,61975,-2585603,-51691,-13099,-345405,-736483,2391199,-635793,-414520,-486558,287610
931,-390111,43166,-2566259,-33827,2005,-299254,-1024711,2954054,-749622,-417142,-515563,191641
932,-314368,17530,-2539339,-17173,22247,-239720,-1500945,3496026,-1071973,-238391,-684197,-38976
933,-221136,-15291,-2505955,-5040,47562,-165865,-1596796,4150713,-1406767,-231939,-737146,-124122
934,-119631,-48395,-2474954,345,72388,-86886,-1250061,4498358,-1531909,-145084,-747857,-283926
935,-25968,-71667,-2453368,1936,89399,-16653,-503238,3984798,-1090200,111870,-554846,-191166
936,36551,-80128,-2448371,3871,95492,28698,302401,2891114,-545855,105647,-474132,-114111
937,75004,-77722,-2458382,8888,93764,55898,773871,2559747,-139418,87828,-422783,-123854
938,110591,-67780,-2470885,17915,86583,80925,650466,2471585,169618,-216762,-543822,30073
939,141408,-59401,-2477585,24804,80478,103050,464240,1860678,-75523,-323901,-523556,134046
940,164263,-56822,-2482089,26973,78590,119738,446273,1436601,-301568,-430380,-462266,148899
941,167617,-61387,-2490005,23891,81930,122229,617415,337527,-788210,-324544,119737,20539
942,154097,-69548,-2499991,18126,87865,112490,614129,-14573,-645708,-330193,44969,108126
943,145941,-72442,-2510766,15966,89959,106648,699696,478580,-436371,-217377,-575975,300006
944,139285,-68143,-2534778,18761,86847,101727,1354680,1063916,-64009,42905,-700792,698572
945,148373,-61817,-2557972,23321,82244,108190,878058,1799706,-104602,158004,-609459,788743
946,165766,-55781,-2573962,27695,77826,120832,1004686,1613404,21504,356924,-585785,219232
947,157146,-42742,-2607666,36385,68199,114326,1777115,582204,420259,795651,-466462,-403200
948,134817,-22776,-2644448,49070,53239,97186,1369441,505106,606585,922509,-335519,-417630
949,125913,-5990,-2653633,59620,40457,89900,217351,-238550,297184,-118561,-523559,473735
950,112543,1895,-2639063,64049,34391,79339,-521442,-937650,-57459,-280520,-643897,388807
951,102388,4625,-2620185,65228,32282,71390,-298478,-643697,-234671,-231390,-631976,263928
952,85889,5930,-2617297,64985,31273,58596,407102,-627784,-297060,10489,-556458,-265253
953,60253,8161,-2626491,64315,29542,38687,685155,-694892,-272599,-3885,-653605,68634
954,33444,13488,-2639444,64919,25401,17585,883404,-546150,-79125,-58688,-689137,214370
955,2789,25926,-2659328,68745,15662,-7341,1263318,-642651,280438,-89995,-777252,-10155
956,-35870,48845,-2684210,76496,-2534,-40140,1516568,-1055471,732458,-35688,-767831,-193176
957,-86418,75893,-2705778,82277,-24410,-83618,1246109,-1920462,697494,-74261,-636884,-74045
958,-150819,96303,-2715271,77913,-41199,-137659,881980,-3016232,381230,-142376,-603844,223253
959,-232421,115006,-2724153,63002,-56788,-204800,1075500,-3922197,333535,-137476,-452147,320727
960,-326354,132169,-2729111,36332,-71262,-279924,554581,-4233522,318545,45812,-215474,363105
961,-400858,143692,-2717181,8863,-81067,-337363,-111817,-3300672,446223,72181,-231732,460813
962,-438028,147144,-2692236,-7519,-84018,-364646,-426614,-1886081,210406,-262725,-364767,505965
963,-472597,140231,-2674226,-27878,-78115,-386321,-611424,-1852027,-419043,-418970,-490696,496251
964,-501693,126176,-2663987,-48959,-66190,-401161,-438385,-958566,-758674,-373765,-441204,482557
965,-504466,112330,-2659716,-56249,-54545,-398258,-302979,714385,-726757,-278874,-356902,488032
966,-474209,98717,-2651773,-46560,-43200,-373792,-548839,2034050,-726961,-245046,-269904,348041
967,-426340,78064,-2636679,-32866,-26185,-335007,-1057828,2333667,-886860,-261104,-244820,239203
968,-369429,51339,-2611027,-20913,-4532,-287811,-1497306,2552661,-925462,-43138,-182046,63787
969,-290919,21299,-2574592,-6613,19296,-224524,-1878429,3585579,-1027724,148875,-169741,-122286
970,-185756,-11406,-2530902,7321,44602,-141774,-1870608,4436357,-1206084,114205,-229837,-252797
971,-78235,-33583,-2494483,18272,61369,-59969,-1126189,4490934,-848440,-76906,-958152,-159141
972,13921,-45132,-2473496,25034,69973,8756,-298931,4016616,-698912,-83668,-966756,-227866
973,81306,-50142,-2469159,28148,73677,58588,248514,3281054,-510413,-88811,-634827,37503
974,125578,-48099,-2476035,31943,72168,91084,569623,2482588,-112973,-186570,-451510,-59264
975,158296,-39752,-2478960,38401,65975,115141,262629,1769212,63113,-279895,-552983,-33409
976,179561,-33878,-2476856,42445,61590,130985,126052,1090849,-138865,-396428,-638747,33618
977,192872,-30878,-2473924,44344,59342,140979,175385,765287,-284450,-468213,-342401,223650
978,196361,-34519,-2470248,41889,62070,143551,17988,38652,-651018,-450560,-105932,58388
979,185498,-39812,-2455723,38476,66021,135398,-505025,-1147523,-599740,-437793,51357,-149659
980,159687,-45828,-2441026,34352,70487,116250,138790,-1363543,-682561,69764,-133103,494931
981,130780,-47927,-2470717,32248,72041,94919,1839189,770587,-388203,-10499,-367231,776745
982,138821,-41270,-2507323,36966,67105,100685,1395953,2348868,109810,-123266,-907248,803160
983,153931,-27382,-2538294,46527,56713,111698,1731565,1640041,455963,319262,-844304,143328
984,125449,505,-2605226,63749,35464,89329,3203951,1423234,1182234,1439324,-553188,-594435
985,129739,31056,-2639941,82987,11616,91719,503581,862896,860715,541530,-435347,58357
986,112462,44263,-2624866,90226,1131,77570,-516981,-1742355,45076,86170,-387889,335736
987,93199,46001,-2600388,90121,-258,62150,-728488,-972111,-316311,-151564,-554575,414952
988,86535,42816,-2585796,87744,2284,57020,-75869,-111548,-570296,-150910,-549961,-159492
989,85776,34188,-2583772,82472,9139,56898,182893,429912,-869353,-23980,-449150,23553
990,94800,25337,-2586103,77678,16126,64468,410240,1060291,-733977,167124,-494085,228279
991,104170,22403,-2593486,76443,18430,71948,580785,884711,-397139,2878,-772223,60917
992,100227,28479,-2604155,79950,13652,68572,746095,197100,118712,-82111,-797901,6218
993,75590,44445,-2617170,87880,983,48235,905325,-1025792,501678,-152435,-716690,-420726
994,27364,61262,-2631499,92943,-12523,8552,958868,-1914594,279933,-80014,-488813,36711
995,-27127,71745,-2650879,91170,-21028,-36036,1197147,-1762532,-124522,-228021,-464241,262376
996,-84492,79098,-2670996,84468,-27031,-82577,967834,-2270738,-174611,-525320,-462083,313814
997,-150569,84242,-2675939,71525,-31248,-135267,359737,-3230493,-194720,-359773,-399455,434391
998,-220767,86135,-2667150,52033,-32805,-189580,213877,-4027046,128950,-164271,-329309,345302
999,-304990,100004,-2661251,29417,-44268,-255853,399288,-3972611,474143,368187,-264670,19867
1000,-372169,111624,-2647988,7362,-53955,-307715,-269503,-2884235,338823,256728,-176553,406918
1001,-412866,106697,-2619790,-13268,-49838,-334875,-929370,-2190125,-41621,-173144,-445380,681240
1002,-443354,101629,-2604892,-30028,-45618,-354148,-133399,-1290455,-342726,-451824,-462340,413998
1003,-460947,94611,-2601366,-41789,-39799,-363631,-100466,-218675,-665404,-426269,-349020,371129
1004,-454373,82915,-2598519,-43908,-30159,-355339,-257355,1057554,-802731,-367906,-378235,373045
1005,-423337,67294,-2591359,-36624,-17409,-329454,-575558,1889808,-861568,-398460,-500849,293525
1006,-379932,45345,-2577684,-28382,266,-293083,-933939,2178452,-1071676,-361887,-538574,178893
1007,-326579,15748,-2558690,-22707,23639,-247568,-1287231,2589824,-1341727,-405067,-651455,14238
1008,-256203,-18294,-2529490,-17598,49843,-189444,-1625135,3122610,-1352247,-424124,-745164,-29818
1009,-169949,-50369,-2493840,-12685,73844,-121695,-1537613,3604877,-1352254,-282979,-696549,-128772
1010,-74342,-80875,-2457472,-12152,96027,-49128,-1422254,3995890,-1466249,105158,-445324,-241881
1011,22237,-108226,-2421435,-17267,115364,21619,-1158850,3606762,-1352815,257553,-313645,-319815
1012,86933,-121628,-2389349,-21363,124645,67259,-773551,1576107,-562377,237510,-513447,-235342
1013,112584,-119658,-2369185,-18565,123288,84749,-221315,822114,-31990,-137237,-695089,-279658
1014,134678,-104894,-2362688,-7129,113036,99494,238383,1403953,584703,-177374,-647057,-137345
1015,154682,-87276,-2377124,5806,100600,113197,1215282,2047006,364240,-203950,-624275,142776
1016,165191,-80568,-2408958,10631,95806,120621,1276972,1883011,-235461,-387090,285838,490713
1017,177550,-75270,-2424520,14368,92000,129480,601137,1151138,90838,-460256,238558,344189
1018,171825,-67128,-2433559,19979,86110,125323,622044,-107233,-123184,-279052,-261687,-164853
1019,143722,-66078,-2455322,20297,85347,104897,1451447,-248721,-357559,266070,-446043,-69658
1020,119354,-64120,-2497245,20822,83922,87125,1725499,1152197,-348895,488049,-364738,458108
1021,127129,-61344,-2521996,23027,81898,92683,816352,1534944,-172001,244740,-368330,653234
1022,125683,-54668,-2536317,27512,77008,91392,966856,44539,-15216,186330,-624335,111463
1023,94791,-45270,-2558335,32306,70075,68225,948156,-264541,38460,248613,-731338,-120770
1024,94615,-40337,-2561248,35587,66412,67822,89142,635355,-216521,58716,-628234,339304
1025,105811,-38827,-2550177,37237,65287,76057,-216842,400112,-263230,-78537,-661807,304473
1026,112672,-36827,-2539069,38916,63795,81072,-85447,242885,-219381,19852,-743140,-1003
1027,112417,-34912,-2532742,40173,62364,80800,57745,-1329,-276820,74304,-672815,-166761
1028,104935,-33572,-2527206,40673,61361,75153,66573,-386024,-251697,1155,-646544,6152
1029,85914,-28051,-2527568,43138,57217,60624,502310,-714661,35915,-20061,-718160,-38432
1030,50622,-13195,-2543472,49863,45966,33000,1168706,-1084122,475810,-56404,-747742,-242909
1031,-3853,10165,-2569071,58157,27987,-10712,1481077,-1877543,685175,-101686,-692821,-411293
1032,-71618,33479,-2596145,60922,9702,-65710,1573762,-2395645,433318,-219317,-662542,-64364
1033,-147999,50240,-2620728,53389,-3651,-126915,1328511,-3031168,1926,-351342,-515111,216979
1034,-233664,62058,-2638248,35087,-13167,-193764,989197,-3552885,-37164,-272646,-364392,358289
1035,-316603,71699,-2643636,10718,-20990,-256732,470135,-3651310,-15026,-68360,-264251,492379
1036,-385729,75784,-2636773,-15673,-24321,-306587,-137238,-3057768,-67031,-31517,-291804,611662
1037,-432556,71214,-2620635,-39012,-20595,-336914,-435285,-2073009,-185742,-210921,-452237,566794
1038,-462654,68698,-2608624,-54525,-18549,-355905,-148472,-1169566,-190238,-235966,-430877,530365
1039,-470515,64990,-2599766,-60088,-15541,-359704,-140392,226578,-355408,-258815,-410478,497283
1040,-451032,56992,-2589964,-54491,-9078,-344254,-462056,1392611,-498018,-222893,-413401,303489
1041,-409573,40422,-2571217,-43678,4191,-311339,-1081206,2057135,-708293,-163943,-456058,107456
1042,-352389,12392,-2540625,-34480,26255,-264018,-1729495,2304600,-1025059,-111739,-525303,3831
1043,-284783,-21765,-2501232,-29020,52473,-207980,-1930974,2625650,-1217022,58506,-489692,18349
1044,-197930,-58906,-2459881,-25372,80116,-138874,-1881848,3731497,-1548176,202410,-349214,-122396
1045,-95173,-89082,-2419115,-21557,101884,-61995,-1452707,4045458,-1047789,212176,-382304,-414041
1046,-7945,-100235,-2384269,-15230,109769,-173,-849840,2967276,-474971,194495,-412603,-470585
1047,49359,-103382,-2358147,-11159,111978,39897,-592689,1957942,-302034,-14165,-516192,-366917
1048,90068,-100767,-2337929,-6233,110142,68094,-353593,1462050,-108517,-164921,-621230,-149020
1049,111867,-96038,-2332518,-1710,106813,83144,460157,1142899,-122720,-400155,-753260,151008
1050,113685,-91141,-2355591,1826,103347,84204,1282883,1252537,-281620,-620854,-687477,274308
1051,120483,-93386,-2373183,535,104937,89108,514237,1276837,-629918,-643917,-380779,207132
1052,140157,-103338,-2362772,-5866,111947,103284,-525674,541419,-965253,-449481,-47289,69438
1053,155027,-117177,-2331457,-15490,121577,113923,-830957,-261571,-1024040,-309212,-423114,214513
1054,164923,-127170,-2312878,-22628,128444,120850,-133249,585620,-637829,-160639,-767232,371267
1055,192393,-126907,-2301577,-22457,128264,139631,-270002,1609465,-282242,207582,-786247,483163
1056,226579,-121394,-2291010,-19194,124483,163190,186215,1606562,47824,352894,-779155,381342
1057,231882,-109860,-2314997,-11068,116502,167284,1466139,1356938,357255,503688,-557765,-90526
1058,221381,-97278,-2346920,-1740,107687,160376,1114474,617210,236106,628272,-261856,-693650
1059,197108,-88597,-2371040,4930,101540,143390,1179126,-417549,8216,474782,-364716,-508252
1060,166563,-85589,-2391561,7133,99397,121644,725311,-363486,-330446,-78554,-607401,265783
1061,155892,-89397,-2389783,4334,102109,114090,-162293,-431557,-652752,-165996,-668096,340765
1062,151398,-98153,-2373709,-1927,108304,111060,-261402,-342099,-826611,-47217,-719549,259811
1063,157292,-106262,-2363221,-7608,113993,115328,-90402,573954,-687721,233230,-924884,183536
1064,174386,-111124,-2353369,-10953,117381,127282,-98150,860093,-575979,319537,-1100102,239912
1065,191674,-114329,-2338954,-13326,119606,139267,-337145,505693,-453280,371669,-1129853,152365
1066,194197,-111556,-2328766,-11357,117682,141049,107492,-144975,-93624,343088,-1069854,-200872
1067,178457,-105578,-2325282,-6975,113516,130116,-5880,-943442,-117960,177925,-916564,-477384
1068,154755,-103794,-2304929,-5883,112267,113516,-681383,-1878841,-309487,20323,-829469,32426
1069,119749,-101494,-2273116,-5234,110654,88922,-944775,-3042140,-76964,25885,-536412,292950
1070,67577,-91729,-2237415,-1427,103764,51666,-833603,-3708098,398957,88041,-282972,184409
1071,4211,-76601,-2214813,2657,92958,5369,-287775,-3472811,493266,151264,-116160,170143
1072,-53280,-65383,-2193561,1892,84841,-36925,-488058,-3178175,245799,38793,-73360,431355
1073,-102219,-61808,-2163430,-4744,82237,-72039,-882805,-3167362,15497,164097,122512,572120
1074,-154698,-55927,-2134466,-12493,77933,-109861,-433672,-3404161,501773,367662,108826,445683
1075,-203326,-28893,-2118469,-8150,57850,-150023,433591,-2031375,1435425,613715,-36710,244985
1076,-218483,10180,-2088633,10763,27975,-170285,-546636,-1122828,2051248,400283,-502272,154224
1077,-214861,38970,-2033396,28287,5346,-174493,-1463159,-1409467,1534604,239189,-459715,234695
1078,-217701,53827,-1974419,35660,-6531,-180015,-1756501,-1575087,1116160,71264,-401711,286558
1079,-213438,60446,-1910734,40596,-11864,-178345,-2113817,-1168788,786268,-357683,-104204,302160
1080,-198753,57327,-1844912,43323,-9347,-166668,-2363737,-761170,300095,-576154,-157257,269595
1081,-178824,44900,-1777491,42122,622,-149085,-2535210,-635329,-117870,-639071,-442662,188840
1082,-153907,26003,-1713119,37939,15601,-126606,-2425506,-175836,-568481,-534852,-706711,49388
1083,-115275,-94,-1652696,31604,35926,-92952,-2366118,694068,-1045609,-354612,-839385,-26046
1084,-59712,-31231,-1591686,23171,59606,-46885,-2430371,1283560,-1354461,-137302,-921170,-167739
1085,-481,-64824,-1525711,10066,84435,607,-2425413,759181,-1558854,31320,-1014589,-407140
1086,27504,-91183,-1471432,-4732,103377,23437,-1430503,-778057,-1078848,363577,-847892,-439218
1087,16320,-93949,-1441502,-7887,105336,15913,-595198,-1376540,9862,109379,-822752,-278007
1088,-5000,-83572,-1424295,-3293,97957,-271,-13765,-1292528,340692,-121640,-844731,-33963
1089,-35724,-69341,-1427247,2045,87715,-23892,780745,-953088,280645,-155710,-516114,368931
1090,-58783,-56080,-1441087,7141,78046,-42307,880051,63601,90961,-126765,-29562,870895
1091,-47848,-50649,-1445951,12563,74052,-35319,158037,1662287,-275054,-278274,213995,835923
1092,-5217,-50301,-1429103,19167,73794,-4582,-632911,1709254,-146043,-395549,189747,674388
1093,33791,-53990,-1396592,21374,76511,24165,-1069061,835844,-595555,-247611,-257443,406687
1094,57938,-66197,-1364343,15435,85434,42755,-890573,197003,-830635,326444,-509270,299414
1095,69857,-74611,-1338200,10647,91524,51986,-716928,-79474,-572695,574503,-707072,21216
1096,87852,-78165,-1302783,9468,94082,65119,-1218598,120469,-322218,436461,-727605,87965
1097,118296,-76333,-1257959,12368,92764,86855,-1479965,350572,-96807,267103,-552230,249317
1098,159713,-74940,-1195512,14484,91761,116626,-2284638,135647,-263454,100664,-469730,383244
1099,205686,-73675,-1119063,15190,90849,149782,-2556445,-126205,-345134,19804,-414542,344166
1100,243778,-71816,-1043100,15178,89506,177322,-2426769,-563052,-436604,-37359,-388343,154332
1101,273393,-70007,-971872,14689,88197,198780,-2264750,-665603,-505843,-175863,-396952,-41151
1102,301065,-67777,-904847,14020,86581,218887,-2138256,-542430,-515800,-281089,-458187,-47922
1103,331656,-65772,-841554,12310,85125,241085,-1941758,-146344,-636712,-356849,-607320,158870
1104,364138,-67324,-787821,7260,86252,264161,-1419703,206309,-834343,-347969,-657046,209081
1105,388649,-71958,-749817,623,89609,280936,-913502,282447,-866156,-323646,-671130,171341
1106,415207,-77114,-714283,-7120,93327,298810,-985985,489544,-911793,-173203,-631345,-20224
1107,445511,-81436,-675506,-15472,96429,319116,-1057498,470667,-924019,-164850,-634447,-40530
1108,476267,-84905,-636998,-23947,98910,339550,-986793,565110,-893736,-385,-719920,-184653
1109,489439,-75062,-613371,-20246,91850,350623,-923068,604955,-789722,89099,-757888,-250840
1110,515309,-74972,-580160,-26136,91783,368313,-855213,347685,-714141,162921,-788509,-286154
1111,531033,-74081,-550470,-29395,91142,379188,-697384,-98328,-668671,251462,-766703,-285632
1112,532435,-73378,-526376,-29290,90635,380307,-507211,-678792,-595028,227964,-770346,-215719
1113,516061,-71477,-507487,-24034,89262,369627,-362030,-1450135,-433861,165412,-768103,-236030
1114,477157,-65506,-495375,-11283,84931,344127,-195114,-2397107,-60808,308377,-564707,-78863
1115,413504,-52048,-492736,9879,75082,301637,160877,-3182193,423384,242202,-534104,-34541
1116,329101,-34615,-509681,33388,62141,242423,1101567,-3426362,728302,222324,-536743,-284135
1117,228555,-14324,-551173,54279,46826,168297,1946562,-3128062,789369,240190,-377722,-10776
1118,143804,6862,-588720,68387,30550,103331,1444589,-2421665,662112,177987,-54210,483513
1119,84870,27097,-606202,78075,14740,56586,721491,-1944878,604108,140039,33026,635208
1120,39799,45024,-600521,84809,522,19827,-264951,-2160588,524855,61895,56095,482820
1121,7705,61244,-570106,90400,-12508,-7131,-929263,-2114350,726322,80793,-325406,298351
1122,-19164,88017,-541694,101619,-34354,-31507,-468827,-1730044,1456505,231135,-666597,54981
1123,-43649,126486,-516008,118117,-66452,-55887,-476191,-1601436,1801324,277273,-565484,33204
1124,-72432,161972,-485711,130316,-96763,-84097,-638462,-2104832,1556213,20889,-463731,231122
1125,-105378,192109,-446736,137051,-123006,-115670,-1227358,-2321221,1568400,-280525,-208500,173507
1126,-134781,218163,-394490,141056,-146046,-144093,-1764941,-2334093,1524069,-402647,-151739,391566
1127,-158911,237506,-334213,142365,-163350,-167307,-2099567,-2164007,1370887,-458399,-301274,494874
1128,-177853,252705,-273519,142734,-177063,-185606,-2022476,-1786529,1211777,-507567,-390208,493580
1129,-191552,262851,-216393,142310,-186271,-198742,-1987296,-1384883,905997,-604005,-370455,430407
1130,-194998,265748,-162365,142291,-188909,-202100,-1985516,-654718,525855,-716337,-370700,364628
1131,-184835,261947,-111112,144145,-185450,-192903,-2011643,41443,148766,-717428,-367004,248115
1132,-161913,251047,-62797,146986,-175563,-171801,-1955625,685323,-278956,-654259,-387358,117608
1133,-127520,234086,-19336,149828,-160279,-140078,-1823717,1363018,-704056,-546993,-423562,665
1134,-82700,210947,19390,150953,-139634,-98767,-1663717,1844753,-1166095,-361351,-390956,-102277
1135,-34668,180957,53549,146998,-113243,-54349,-1489540,1919506,-1628583,-48756,-311403,-171613
1136,9184,148862,84803,138351,-85489,-14071,-1304643,1529985,-1615042,202491,-131882,-227104
1137,32198,129500,113206,131389,-69001,6871,-904962,147792,-764447,361964,-152214,-356138
1138,20599,130254,134208,130306,-69639,-2897,-493671,-1299274,48924,310862,-519862,-553112
1139,-1181,143624,152811,134146,-81009,-22333,-348959,-1003991,671262,46966,-828102,-2471
1140,-11962,166189,159908,143778,-100408,-33556,547725,-60573,797025,141001,-358813,400429
1141,-13151,183402,153912,151926,-115379,-36176,567936,652705,95499,243953,386366,630328
1142,-6266,188212,154554,155335,-119588,-30691,141167,604308,47715,-401545,335368,755916
1143,3350,207399,167508,165781,-136488,-23972,-362247,521753,881790,-682056,-249111,377891
1144,22515,224955,194057,176491,-152101,-8475,-924249,690286,515521,-672259,-470572,-353609
1145,29574,226706,216733,178220,-153667,-2357,-677888,-165928,-562701,-613823,-350814,-42664
1146,32136,210648,245429,171327,-139367,969,-1388796,-53762,-1089103,-367550,-256867,673720
1147,50259,194801,277042,166139,-125371,17834,-993673,773625,-816074,-84545,-167255,601953
1148,74077,188062,291717,165341,-119456,38974,-92990,1333985,-538105,80055,-216048,133853
1149,98752,184802,290706,165739,-116602,60628,356707,1695658,-531154,3090,-367476,-137435
1150,128185,182038,296877,166046,-114188,86383,-307835,1546466,-474717,-130396,-454593,-75451
1151,156144,177592,317054,164737,-110310,110829,-758729,1044631,-593658,-228299,-539677,261293
1152,177214,171785,341134,162070,-105259,129183,-819940,642475,-670483,-250169,-545278,170949
1153,192887,165864,369535,159016,-100127,142744,-1100232,255608,-650581,-265944,-542109,121315
1154,205375,162340,404506,157012,-97082,153498,-1297333,-21228,-513802,-255944,-465244,183346
1155,215434,161251,437161,156178,-96141,162158,-1017791,52087,-442509,-255110,-466184,174685
1156,224981,161747,460412,156077,-96569,170401,-594508,319760,-349097,-275258,-397824,77255
1157,233725,163010,474935,156322,-97659,177975,-262421,404802,-325522,-274939,-424032,-76314
1158,239710,164393,483770,156712,-98855,183179,-63004,406151,-302767,-242064,-448150,-110495
1159,243567,166757,488899,157681,-100900,186585,76275,369161,-231243,-181067,-483993,-105417
1160,245395,170580,491468,159478,-104213,188293,146204,347266,-144201,-205097,-524227,32126
1161,246125,175954,492528,162088,-108884,189107,224730,325394,-70985,-261738,-546628,140138
1162,244442,182953,491017,165605,-114987,187875,329549,252166,35595,-339291,-576749,165433
1163,240692,191717,489745,170040,-122663,184872,221837,75501,86344,-404562,-580960,95407
1164,230462,199488,491732,174249,-129500,176101,103698,-458361,-37711,-404605,-486522,-45617
1165,212990,203457,497973,176792,-133001,160777,-150636,-776150,-265544,-378677,-452945,50700
1166,194612,203948,511215,177449,-133436,144550,-392208,-984734,-374854,-316848,-441402,189470
1167,174095,204184,526002,177682,-133644,126420,-389544,-1073285,-343743,-207233,-415222,236913
1168,148219,205472,536341,177908,-134784,103536,-54911,-1303845,-252448,-127701,-406165,90883
1169,116207,208081,539584,177834,-137092,75179,188946,-1383617,-228211,-89924,-473924,-117241
1170,81657,208961,540493,175837,-137871,44636,213867,-1438535,-368971,-75093,-511872,-125578
1171,47597,208018,540174,172001,-137036,14708,279650,-1312936,-399651,-77775,-466762,229363
1172,15314,210988,542163,169196,-139669,-13800,113244,-1440497,-57751,-71901,-452747,343884
1173,-26089,220594,552473,166818,-148212,-50798,-265170,-2406929,326472,-62290,-397452,344276
1174,-89849,234516,569037,159557,-160663,-107699,-224198,-3704591,596546,41605,-243811,-114387
1175,-176555,255539,583786,144267,-179631,-184920,-47431,-4600449,965329,105264,-152119,-108378
1176,-270653,276403,608980,118715,-198639,-267161,-704761,-4990632,1075537,126117,140509,306475
1177,-352571,287636,651516,87343,-208945,-335587,-1376293,-4191271,1023888,-3172,90971,790305
1178,-409520,296758,689973,62534,-217351,-381958,-586071,-2726658,906816,-141142,-1958,820793
1179,-446097,310197,706739,47438,-229794,-412694,166544,-1218865,414486,-268151,-3369,26774
1180,-458787,313960,715977,41617,-233290,-423039,-133148,-40780,-96524,-279053,38945,189906
1181,-449689,309467,729928,45266,-229116,-415237,-524860,779093,-192177,-274127,-81760,354620
1182,-427187,302821,746198,55280,-222956,-396774,-542561,1354390,-188765,-435829,-230864,435538
1183,-391715,297084,761957,71624,-217652,-368260,-499574,2119175,-205468,-623636,-343193,418575
1184,-339397,290804,777985,94479,-211862,-325706,-578949,2884680,-295665,-743200,-408753,308546
1185,-276836,280355,794232,117670,-202257,-272950,-668900,3204793,-616102,-749913,-495917,245780
1186,-212540,262811,807096,135220,-186235,-216470,-604375,3276955,-1134900,-633613,-528677,143142
1187,-148160,234377,817509,144204,-160539,-157728,-758419,3271491,-1765152,-367784,-397285,-35198
1188,-80809,199085,834228,146025,-129143,-95729,-1071540,3430093,-1729086,-136851,-217652,-380
1189,-4479,174927,861706,149248,-107989,-27978,-1267822,3233886,-978177,-142576,-184425,-183824
1190,53591,164094,897733,151591,-98597,22602,-1360814,1691167,-581608,-52252,-358154,-429607
1191,73112,157793,928186,150347,-93160,39696,-866587,-20846,-448843,-205090,-484562,-321047
1192,73457,160897,943363,151942,-95836,39829,-76255,178963,46735,-290013,-550322,-26502
1193,84758,173645,941337,159250,-106875,48941,710070,1424622,342255,-470493,-301153,5462
1194,107388,185647,925152,166709,-117342,68132,1084009,1945483,33347,-532930,-152733,-73786
1195,127762,189238,905144,169509,-120487,85840,1190545,1717812,-399314,-376458,-22589,165035
1196,142337,188768,884628,169826,-120075,98615,1003641,1456325,-379989,-218726,161860,666436
1197,157956,191915,881079,171712,-122836,112270,108906,1055860,-157126,-133865,34204,609782
1198,170842,193622,888437,172676,-124335,123578,-68833,507481,-328580,-52356,-20969,368371
1199,161585,198522,875639,174911,-128647,115407,1538536,368045,113320,257649,-405328,-232541
1200,150461,212726,839199,181324,-141212,105426,1773222,595319,349676,-9154,-469332,-64023
1201,138000,227963,811962,187859,-154791,94097,1432864,141532,373517,-204150,-532427,149028
1202,130365,240846,789549,193235,-166354,87004,1093227,733986,94785,69252,-46759,461495
1203,141298,245284,779449,195567,-170355,96769,544149,1168787,-269598,30070,-142810,349266
1204,156463,244645,779607,195685,-169779,110453,51412,1025288,-453386,88363,-278625,164517
1205,172796,242744,791626,195053,-168064,125189,-467396,755314,-421411,-49265,-499440,148118
1206,184092,243153,810436,195222,-168434,135370,-614911,338816,-300132,-193401,-474840,77986
1207,189591,244959,827222,195956,-170061,140335,-412853,208091,-284667,-300092,-447592,-27155
1208,192321,245586,838612,196194,-170628,142801,-188353,228937,-364309,-409491,-480778,-172519
1209,192795,245490,844924,196146,-170542,143230,79267,192844,-361325,-421559,-521377,-133916
1210,190777,246459,844887,196589,-171415,141414,359842,267186,-281481,-435657,-557887,-73063
1211,189302,248062,838710,197293,-172862,140091,626416,457000,-294817,-254629,-341276,94092
1212,190862,247834,828852,197178,-172659,141498,710108,684079,-410959,-165984,-260945,156130
1213,190355,246785,817321,196734,-171710,141035,851601,397926,-369012,-30424,-314810,-12840
1214,178407,249055,801839,197780,-173760,130247,985616,-199925,-161143,-55121,-594208,-18868
1215,150340,255991,786363,200389,-180041,104799,933439,-1121120,83228,-206593,-660102,-164058
1216,104073,269220,772531,203756,-192075,62495,900652,-1981740,346884,-385742,-501568,-176410
1217,45927,284310,756958,204344,-205887,8933,1222719,-2343611,253457,-523308,-379479,55512
1218,-19994,296034,736412,198909,-216683,-51681,1108759,-2832052,-43678,-541661,-179506,219472
1219,-97860,288037,739833,179083,-209314,-120689,-129348,-4211217,-127471,-94543,-46127,336134
1220,-186410,295026,746983,156028,-215753,-198963,224204,-4082527,150435,273238,72678,262705
1221,-259730,302550,753754,132255,-222705,-262456,-105749,-3053005,53875,338774,123484,328227
1222,-305376,301917,770255,113283,-222119,-300194,-474168,-1850568,-94449,41355,109928,508161
1223,-333758,304553,777028,101629,-224560,-323762,316898,-773202,-74280,-35537,122318,411201
1224,-340760,305555,784866,98763,-225489,-329594,-421472,42643,-193716,-216357,81971,-28661
1225,-332187,298158,805646,100219,-218644,-321307,-811465,607607,-214255,-537592,-385155,397546
1226,-306527,291982,822610,109412,-212945,-299361,-392177,1734514,-272590,-687226,-422286,439275
1227,-262320,290333,828674,126988,-211427,-262627,165534,2774757,-356554,-881682,-451011,305861
1228,-204740,287612,825353,147186,-208922,-213634,407344,3541205,-694473,-826638,-432672,54750
1229,-135962,274822,817656,163904,-197191,-152606,301159,4150493,-1388210,-709583,-376624,3916
1230,-54231,240431,810854,169977,-165981,-77315,-80489,4805960,-2468483,-190861,180758,-71238
1231,43369,198910,815622,167281,-128990,11566,-466000,5090262,-2103004,-23599,63429,-296854
1232,116813,173571,828975,161350,-106809,76719,-418774,2287753,-1403670,350222,-376338,-632316
1233,121516,155982,843313,152769,-91601,81295,-277796,-623532,-1021872,169258,-894766,-385824
1234,107724,153889,835878,150956,-89802,69528,1100587,480288,-135580,-249278,-946751,114346
1235,118043,167165,807419,158233,-101254,77976,1619331,1987008,374586,-563243,-757764,503588
1236,142718,181742,783995,166437,-113929,99068,986954,2269348,113434,-688724,-278490,719710
1237,191074,186621,786816,169255,-118193,141314,-418279,2728946,-115957,-623672,250753,532154
1238,238722,191236,815244,169916,-122240,183132,-1167769,1177247,-367031,-559774,243813,-43722
1239,238527,186444,841721,167625,-118039,182821,-493537,-856189,-728252,-57909,-52059,-351241
1240,228661,182705,833281,166297,-114768,174104,1324160,879822,-342834,213942,-226152,-56255
1241,237343,186325,795039,167630,-117935,181782,2034023,2040231,25969,-153022,-479089,320222
1242,254895,191727,761606,169170,-122671,197311,1478334,1779284,-36330,-75019,-387073,329901
1243,258982,198272,729470,171989,-128426,201141,1793666,1390723,156513,905500,-58794,30860
1244,269262,213409,696931,178236,-141818,210811,1384707,1403730,720866,205421,-703192,142634
1245,256161,227963,681476,185800,-154791,199735,575192,-967948,185209,-282016,-806292,-14899
1246,225089,233016,677467,189792,-159317,172097,437839,-828452,-214376,-220122,-566140,154583
1247,209293,232836,667796,190275,-159157,157938,826454,-21513,-415658,-41756,-278428,-149463
1248,199762,230607,657093,189516,-157158,149371,618000,53006,-488779,-791,-363633,-91519
1249,186178,229899,649838,189390,-156524,137200,630258,-328206,-272425,10613,-462731,-23882
1250,164529,237359,638696,192640,-163218,117769,796389,-628990,209820,-247048,-792967,-179653
1251,127494,257428,627094,200191,-181346,84066,852781,-1906960,868808,-287114,-819061,-428863
1252,49648,285820,613096,205378,-207275,12245,1069355,-3970387,944536,-217427,-711038,-580827
1253,-37177,304868,604405,198948,-224852,-67922,571059,-3491802,242893,-587980,-254023,583095
1254,-111283,313188,602536,184818,-232572,-135276,479349,-3564764,-79190,-713911,-182706,646024
1255,-200882,318891,597017,159491,-237879,-214709,573752,-4077938,-232765,-630297,-65993,707436
1256,-280795,319515,592860,129455,-238462,-282812,370131,-3161991,-540871,-200693,145328,356443
1257,-331058,313587,589198,105790,-232942,-323219,247559,-1407431,-713823,-118602,82344,458433
1258,-341277,311543,584874,100466,-231045,-331118,501187,693466,-444483,-103893,13323,590766
1259,-325025,311141,585262,107714,-230669,-317877,-97893,1117112,-374435,-407315,-278358,370831
1260,-301431,301225,599056,114739,-221480,-296836,-795488,1420776,-583728,-365756,-333064,263532
1261,-259424,283258,624145,125599,-204922,-259035,-1400500,2252069,-686227,-396330,-445889,86158
1262,-197409,261529,659072,139862,-185069,-203505,-1717992,2988513,-762027,-437219,-543929,13157
1263,-113691,238547,693328,155351,-164285,-128778,-1425724,4302327,-1097091,-311885,-516006,43151
1264,-9537,214496,715455,166950,-142784,-35807,-752713,5456717,-1321401,-66925,-177798,-96496
1265,109600,197404,728568,172460,-127663,69680,-309852,6020675,-1013519,71532,21423,-300264
1266,203409,188329,737061,169868,-119690,152132,25027,3732017,-660006,-56550,13618,-499919
1267,235738,187267,738193,168167,-118760,180406,280406,1109036,-280984,-221614,-434410,-347513
1268,242685,191547,730657,169846,-122512,186612,790568,901816,-51760,-607355,-686472,15329
1269,255333,197573,713554,171915,-127813,197911,998575,1652986,-3199,-783086,-477345,58199
1270,272400,201570,697393,172498,-131335,213064,961640,1286478,-224111,-580756,-322546,222214
1271,272099,200490,682894,172016,-130382,212752,762884,347167,-383459,-382171,-192090,43449
1272,266161,200496,679308,172498,-130388,207536,327902,22382,-303828,-58647,-236595,-440883
1273,246999,200626,655714,173892,-130502,190690,2182841,32576,-199018,333467,-287003,382008
1274,235171,201536,602223,174983,-131305,180301,2263943,1704750,-192048,400050,282252,712374
1275,263632,207205,585361,175822,-136317,205584,372652,1966339,232377,584423,-62667,235751
1276,247095,230318,567186,187447,-156900,191719,1566574,-1691889,1078618,329099,-826187,-839556
1277,183686,250954,545774,198574,-175479,135024,519851,-2112859,435185,-207800,-491813,280921
1278,170307,259976,558914,202373,-183659,122892,-633354,269760,-61964,-498221,-502767,695703
1279,175426,261472,573639,203019,-185017,127542,-160772,-86300,-406447,-178142,-396962,-154819
1280,164239,257619,575377,201329,-181518,117393,211351,-113365,-620668,217606,-382701,-392136
1281,162331,252677,577409,199218,-177038,115692,174454,253096,-590417,106160,-401493,10031
1282,155312,249130,578302,197588,-173827,109372,252545,-279286,-455662,-32117,-486246,27322
1283,133449,253105,573641,198623,-177425,89545,640059,-1001361,-38628,-96292,-455092,-320862
1284,89989,262295,561995,199876,-185765,49936,821990,-1883703,143234,-165569,-454716,-220462
1285,35476,276366,553853,199895,-198605,-127,597248,-2534672,359349,-365737,-406629,76458
1286,-36747,291429,555128,194005,-212436,-66439,219165,-3795769,373279,-420349,-244909,201501
1287,-133302,305517,555660,176051,-225453,-153955,524250,-4770434,359567,-338706,-169073,164077
1288,-233853,319923,559359,148017,-238840,-243208,107572,-4683682,338386,-235948,-35034,170231
